<Bundle xmlns="http://hl7.org/fhir">
  <id value="calcium-gluconate-infusion-request2-r5" />
  <type value="message" />
  <entry>
    <fullUrl value="urn:uuid:682858a9-3942-412d-9ae5-71a2f17f7c5b" />
    <resource>
      <MessageHeader>
        <id value="682858a9-3942-412d-9ae5-71a2f17f7c5b" />
        <focus>
          <reference value="MedicationRequest/34eb3c92-76e6-48c2-9691-aa1f0b58369b" />
          <type value="MedicationRequest" />
        </focus>
      </MessageHeader>
    </resource>
  </entry>
  <entry>
    <resource>
      <Medication>
        <id value="11dc9519-b6e8-41bb-bce5-f6f724b743bc" />
        <meta>
          <profile value="https://fhir.hl7.org.uk/StructureDefinition/UKCore-Medication" />
        </meta>
        <form>
          <coding>
            <system value="http://snomed.info/sct" />
            <code value="385229008" />
            <display value="Solution for infusion" />
          </coding>
        </form>
        <ingredient>
          <itemCodeableConcept>
              <coding>
                <system value="http://snomed.info/sct" />
                <code value="53691001" />
                <display value="Calcium Gluconate" />
              </coding>
          </itemCodeableConcept>
          <extension url="https://fhir.hl7.org.uk/StructureDefinition/Extension-UKCore-{made-up-name}IngredientQuantity">
            <valueQuantity>
              <value value="50" />
              <unit value="millilitre" />
              <system value="http://unitsofmeasure.org" />
              <code value="ml" />
            </valueQuantity>
          </extension>
          <strength>
            <numerator>
              <value value="1" />
            </numerator>
            <denominator>
              <value value="10" />
            </denominator>
          </strength>
        </ingredient>
      </Medication>
    </resource>
  </entry>
  <entry>
    <resource>
      <MedicationRequest>
        <id value="34eb3c92-76e6-48c2-9691-aa1f0b58369b" />
        <meta>
          <profile value="https://fhir.hl7.org.uk/StructureDefinition/UKCore-MedicationRequest" />
        </meta>
        <status value="active" />
        <intent value="original-order" />
        <medicationReference>
          <reference value="11dc9519-b6e8-41bb-bce5-f6f724b743bc" />
          <type value="Medication" />
        </medicationReference>
        <subject>
          <reference value="Patient/UKCore-Patient-RichardSmith-Example" />
        </subject>
        <reasonCode>
        <coding>
            <system value="http://snomed.info/sct" />
            <code value="5291005" />
            <display value="Hypocalcemia" />
        </coding>
    </reasonCode>
          <dosageInstruction>
            <text value="Continuous infusion 2 millilitre per hour - Intravenous central route" />
            <route>
              <coding>
                <system value="http://snomed.info/sct" />
                <code value="418114005" />
                <display value="Intravenous central route" />
              </coding>
            </route>
            <method>
              <coding>
                <system value="http://snomed.info/sct" />
                <code value="261754007" />
                <display value="Continuous infusion" />
              </coding>
            </method>
            <doseAndRate>
              <doseQuantity>
                <value value="2" />
                <unit value="millilitre per hour" />
                <system value="http://unitsofmeasure.org" />
                <code value="ml/h" />
              </doseQuantity>
            </doseAndRate>
          </dosageInstruction>
      </MedicationRequest>
    </resource>
  </entry>
</Bundle>