<Bundle xmlns="http://hl7.org/fhir">
  <id value="7cd3f180-76f7-4bc6-b6d5-e672acd83b81" />
  <identifier>
    <system value="urn:[organisation_name]:[system_name]" />
    <value value="urn:8cd8108d-8c72-4fe9-a284-cd28b127fcfa" />
  </identifier>
  <type value="message" />
  <timestamp value="2021-05-07T13:00:25Z" />
  <!--  Message Header  -->
  <entry>
    <fullUrl value="urn:message-header-234234234" />
    <resource>
      <MessageHeader>
        <id value="message-header-234234234" />
        <eventCoding>
          <system value="http://hl7.org/fhir/message-events" />
          <code value="current-medication" />
          <display value="Current Medication" />
        </eventCoding>
        <source>
          <name value="ACME GP Systems" />
          <software value="ACME GP" />
          <version value="5.5.00" />
          <endpoint value="urn:nhs-uk:addressing:ods:M12345" />
        </source>
        <focus>
          <reference value="urn:medication-statement-1234" />
        </focus>
        <focus>
          <reference value="urn:medication-statement-3452456" />
        </focus>
        <focus>
          <reference value="urn:medication-statement-876543" />
        </focus>
      </MessageHeader>
    </resource>
  </entry>
  <!-- // Patient associated with the encounter -->
  <entry>
    <fullUrl value="urn:patient-01912" />
    <resource>
      <Patient>
        <id value="patient-01912" />
        <identifier>
          <system value="https://fhir.nhs.uk/Id/nhs-number" />
          <value value="4857773456" />
        </identifier>
        <name>
          <use value="official" />
          <text value="Mr Chris Packet" />
          <family value="Packet" />
          <given value="Chris" />
          <prefix value="Mr" />
        </name>
        <gender value="male" />
        <birthDate value="1995-11-12" />
      </Patient>
    </resource>
  </entry>
  <!-- // Prescribing clinician associated with the encounter.  -->
  <entry>
    <fullUrl value="urn:staff-0002" />
    <resource>
      <Practitioner>
        <id value="staff-0002" />
        <name>
          <text value="Dr Maikeu Better" />
          <family value="Better" />
          <given value="Maikeu" />
          <prefix value="Dr" />
        </name>
        <qualification>
          <code>
            <coding>
              <system value="https://fhir.hl7.org.uk/Id/gmc-number" />
              <code value="2145879" />
              <display value="General Medical Council" />
            </coding>
          </code>
        </qualification>
      </Practitioner>
    </resource>
  </entry>
  <!-- // Medication #1: Paracetamol 500mg tablets -->
  <entry>
    <fullUrl value="urn:medication-685463" />
    <resource>
      <Medication>
        <id value="medication-685463" />
        <code>
          <coding>
            <system value="http://snomed.info/sct" />
            <code value="90332006" />
            <display value="Paracetamol 500mg tablets" />
          </coding>
        </code>
      </Medication>
    </resource>
  </entry>
  <!-- // MedicationStatement #1: Paracetamol 500mg tablets -->
  <entry>
    <fullUrl value="urn:medication-statement-1234" />
    <resource>
      <MedicationStatement>
        <id value="medication-statement-1234" />
        <status value="active" />
        <category>
          <coding>
            <system value="http://hl7.org/fhir/medication-request-category" />
            <code value="patientspecified" />
            <display value="patientspecified" />
          </coding>
        </category>
        <medicationReference>
          <reference value="medication-685463" />
          <display value="Paracetamol 500mg tablets" />
        </medicationReference>
        <subject>
          <reference value="patient-01912" />
          <display value="Mr Chris PACKET" />
        </subject>
        <dateAsserted value="2021-05-07T13:00:25Z" />
        <informationSource>
          <reference value="staff-0002" />
          <display value="Dr Maikeu Better" />
        </informationSource>
        <dosage>
          <timing>
            <repeat>
              <frequency value="4" />
              <period value="1" />
              <periodUnit value="d" />
            </repeat>
          </timing>
          <route>
            <coding>
              <system value="http://snomed.info/sct" />
              <code value="26643006" />
              <display value="oral" />
            </coding>
          </route>
          <doseAndRate>
            <doseQuantity>
              <value value="2" />
              <unit value="tablet" />
              <system value="http://snomed.info/sct" />
              <code value="428673006" />
            </doseQuantity>
          </doseAndRate>
        </dosage>
      </MedicationStatement>
    </resource>
  </entry>
  <!-- // Medication #2: Codeine 30mg tablet-->
  <entry>
    <fullUrl value="urn:medication-634523423" />
    <resource>
      <Medication>
        <id value="medication-634523423" />
        <code>
          <coding>
            <system value="http://snomed.info/sct" />
            <code value="322503009" />
            <display value="Codeine 30mg tablets" />
          </coding>
        </code>
      </Medication>
    </resource>
  </entry>
  <!-- // MedicationStatement #2: Codeine 30mg tablet -->
  <entry>
    <fullUrl value="urn:medication-statement-3452456" />
    <resource>
      <MedicationStatement>
        <id value="medication-statement-3452456" />
        <status value="active" />
        <category>
          <coding>
            <system value="http://hl7.org/fhir/medication-request-category" />
            <code value="patientspecified" />
            <display value="patientspecified" />
          </coding>
        </category>
        <medicationReference>
          <reference value="medication-634523423" />
          <display value="Codeine 30mg tablets" />
        </medicationReference>
        <subject>
          <reference value="patient-01912" />
          <display value="Mr Chris PACKET" />
        </subject>
        <dateAsserted value="2021-05-07T13:00:25Z" />
        <informationSource>
          <reference value="staff-0002" />
          <display value="Dr Maikeu Better" />
        </informationSource>
        <dosage>
          <timing>
            <repeat>
              <frequency value="4" />
              <period value="1" />
              <periodUnit value="d" />
            </repeat>
          </timing>
          <route>
            <coding>
              <system value="http://snomed.info/sct" />
              <code value="26643006" />
              <display value="oral" />
            </coding>
          </route>
          <doseAndRate>
            <doseQuantity>
              <value value="2" />
              <unit value="tablet" />
              <system value="http://snomed.info/sct" />
              <code value="428673006" />
            </doseQuantity>
          </doseAndRate>
        </dosage>
      </MedicationStatement>
    </resource>
  </entry>
  <!-- // Medication #3: Ibuprofen 800mg modified-release tablets -->
  <entry>
    <fullUrl value="urn:medication-784234" />
    <resource>
      <Medication>
        <id value="medication-784234" />
        <code>
          <coding>
            <system value="http://snomed.info/sct" />
            <code value="39110311000001101" />
            <display value="Ibuprofen 800mg modified-release tablets" />
          </coding>
        </code>
      </Medication>
    </resource>
  </entry>
  <!-- // MedicationStatement #3: Ibuprofen 800mg modified-release tablets -->
  <entry>
    <fullUrl value="urn:medication-statement-876543" />
    <resource>
      <MedicationStatement>
        <id value="medication-statement-876543" />
        <status value="active" />
        <category>
          <coding>
            <system value="http://hl7.org/fhir/medication-request-category" />
            <code value="patientspecified" />
            <display value="patientspecified" />
          </coding>
        </category>
        <medicationReference>
          <reference value="medication-634523423" />
          <display value="Ibuprofen 800mg modified-release tablets" />
        </medicationReference>
        <subject>
          <reference value="patient-01912" />
          <display value="Mr Chris PACKET" />
        </subject>
        <dateAsserted value="2021-05-07T13:00:25Z" />
        <informationSource>
          <reference value="staff-0002" />
          <display value="Dr Maikeu Better" />
        </informationSource>
        <dosage>
          <timing>
            <repeat>
              <frequency value="2" />
              <period value="1" />
              <periodUnit value="d" />
            </repeat>
          </timing>
          <route>
            <coding>
              <system value="http://snomed.info/sct" />
              <code value="26643006" />
              <display value="oral" />
            </coding>
          </route>
          <doseAndRate>
            <doseQuantity>
              <value value="1" />
              <unit value="tablet" />
              <system value="http://snomed.info/sct" />
              <code value="428673006" />
            </doseQuantity>
          </doseAndRate>
        </dosage>
      </MedicationStatement>
    </resource>
  </entry>
</Bundle>