<Bundle xmlns="http://hl7.org/fhir">
  <id value="7d107ed2-70c6-43d9-9cbe-f19c319d1456" />
  <identifier>
    <system value="urn:[organisation_name]:[system_name]" />
    <value value="urn:8cd8108d-8c72-4fe9-a284-cd28b127fcfa" />
  </identifier>
  <type value="message" />
  <timestamp value="2021-05-07T16:15:32Z" />
  <!--   Message Header   -->
  <entry>
    <fullUrl value="urn:message-header-167434" />
    <resource>
      <MessageHeader>
        <id value="urn:message-header-167434" />
        <eventCoding>
          <system value="https://fhir.hl7.org.uk//CodeSystem/message-event" />
          <code value="prescription-order" />
          <display value="Prescription Order" />
        </eventCoding>
        <source>
          <name value="ACME Clinical Systems" />
          <software value="ACME ePMA" />
          <version value="3.5.68" />
          <endpoint value="urn:nhs-uk:addressing:ods:T48NT" />
        </source>
        <focus>
          <reference value="urn:med-req-01923" />
        </focus>
      </MessageHeader>
    </resource>
  </entry>
  <!-- // Patient associated with the encounter  -->
  <entry>
    <fullUrl value="urn:patient-01912" />
    <resource>
      <Patient>
        <id value="patient-01912" />
        <identifier>
          <system value="https://fhir.nhs.uk/Id/nhs-number" />
          <value value="4857773456" />
        </identifier>
        <name>
          <use value="official" />
          <text value="Mr Chris Packet" />
          <family value="Packet" />
          <given value="Chris" />
          <prefix value="Mr" />
        </name>
        <gender value="male" />
        <birthDate value="1995-11-12" />
      </Patient>
    </resource>
  </entry>
  <!-- // Prescribing clinician associated with the encounter.  -->
  <entry>
    <fullUrl value="urn:staff-1112" />
    <resource>
      <Practitioner>
        <id value="staff-1112" />
        <name>
          <text value="Dr Maikeu Well" />
          <family value="Well" />
          <given value="Maikeu" />
          <prefix value="Dr" />
        </name>
        <qualification>
          <code>
            <coding>
              <system value="https://fhir.hl7.org.uk/Id/gmc-number" />
              <code value="2145879" />
              <display value="General Medical Council" />
            </coding>
          </code>
        </qualification>
      </Practitioner>
    </resource>
  </entry>
  <!-- // Medication prescribed  -->
  <entry>
    <fullUrl value="urn:medication-99101" />
    <resource>
      <Medication>
        <id value="medication-99101" />
        <code>
          <coding>
            <system value="http://snomed.info/sct" />
            <code value="415159003" />
            <display value="Pregabalin" />
          </coding>
        </code>
      </Medication>
    </resource>
  </entry>
  <!--  // Medication Request  -->
  <entry>
    <fullUrl value="urn:med-req-01923" />
    <resource>
      <MedicationRequest>
        <id value="med-req-01923" />
        <identifier>
          <value value="6d2bfb69-656a-45ef-92d0-d4aae02bb438" />
        </identifier>
        <status value="active" />
        <intent value="order" />
        <category>
          <coding>
            <system value="http://hl7.org/fhir/medication-request-category" />
            <code value="inpatient" />
            <display value="inpatient" />
          </coding>
        </category>
        <priority value="routine" />
        <medicationReference>
          <reference value="medication-99101" />
          <display value="Pregabalin" />
        </medicationReference>
        <subject>
          <reference value="patient-01912" />
          <display value="Mr Chris Packet" />
        </subject>
        <authoredOn value="2021-05-07T18:12:41+01:00" />
        <requester>
          <reference value="staff-1112" />
          <display value="Dr Maikeu Well" />
        </requester>
        <recorder>
          <reference value="staff-1112" />
          <display value="Dr Maikeu Well" />
        </recorder>
        <dosageInstruction>
          <sequence value="1" />
          <timing>
            <repeat>
              <boundsDuration>
                <value value="3" />
                <unit value="day" />
                <system value="http://unitsofmeasure.org" />
                <code value="d" />
              </boundsDuration>
              <frequency value="2" />
              <period value="1" />
              <periodUnit value="d" />
            </repeat>
          </timing>
          <route>
            <coding>
              <system value="http://snomed.info/sct" />
              <code value="26643006" />
              <display value="oral" />
            </coding>
          </route>
          <doseAndRate>
            <doseQuantity>
              <value value="75" />
              <unit value="milligram" />
              <system value="http://unitsofmeasure.org" />
              <code value="mg" />
            </doseQuantity>
          </doseAndRate>
        </dosageInstruction>
        <dosageInstruction>
          <sequence value="2" />
          <timing>
            <repeat>
              <frequency value="3" />
              <period value="1" />
              <periodUnit value="d" />
            </repeat>
          </timing>
          <route>
            <coding>
              <system value="http://snomed.info/sct" />
              <code value="26643006" />
              <display value="oral" />
            </coding>
          </route>
          <doseAndRate>
            <doseQuantity>
              <value value="75" />
              <unit value="milligram" />
              <system value="http://unitsofmeasure.org" />
              <code value="mg" />
            </doseQuantity>
          </doseAndRate>
        </dosageInstruction>
        <substitution>
          <allowedBoolean value="false" />
        </substitution>
      </MedicationRequest>
    </resource>
  </entry>
</Bundle>