<!--   This xml example is for illustrative purposes only and has not been clinically verified.   -->
<Bundle xmlns="http://hl7.org/fhir">
  <id value="317590f8-ba1f-4583-a4e3-2c61cb2308a4" />
  <type value="message" />
  <timestamp value="2021-05-07T16:15:32Z" />
  <!--    Message Header    -->
  <entry>
    <fullUrl value="urn:message-header-167434" />
    <resource>
      <MessageHeader>
        <id value="urn:message-header-167434" />
        <eventCoding>
          <system value="http://hl7.org/fhir/message-events" />
          <code value="individual-requirements-1" />
          <display value="Individual Requirements" />
        </eventCoding>
        <source>
          <endpoint value="urn:nhs-uk:addressing:ods:T48NT" />
        </source>
        <focus>
          <reference value="urn:medication-disp-1231253" />
        </focus>
      </MessageHeader>
    </resource>
  </entry>
  <!--  Patient associated with the encounter.  -->
  <entry>
    <fullUrl value="urn:patient-748395739" />
    <resource>
      <Patient>
        <id value="urn:patient-748395739" />
        <identifier>
          <system value="https://fhir.nhs.uk/Id/nhs-number" />
          <value value="748395739" />
        </identifier>
        <name>
          <use value="official" />
          <text value="Miss Carrie Oakey" />
          <family value="Oakey" />
          <given value="Carrie" />
          <prefix value="Miss" />
        </name>
        <gender value="male" />
        <birthDate value="1977-06-04" />
      </Patient>
    </resource>
  </entry>
  <!--    Performer associated with the encounter.    -->
  <entry>
    <fullUrl value="urn:staff-0002" />
    <resource>
      <Practitioner>
        <id value="urn:staff-0002" />
        <name>
          <text value="Dr Allo Kate" />
          <family value="Kate" />
          <given value="Allo" />
          <prefix value="Dr" />
        </name>
        <qualification>
          <code>
            <coding>
              <system value="https://fhir.hl7.org.uk/Id/gpc-number" />
              <code value="123543" />
              <display value="General Pharmaceutical Council" />
            </coding>
          </code>
        </qualification>
      </Practitioner>
    </resource>
  </entry>
  <!--  Medication  -->
  <entry>
    <fullUrl value="urn:medication-15053011000001100" />
    <resource>
      <Medication>
        <id value="urn:medication-15053011000001100" />
        <code>
          <coding>
            <system value="http://snomed.info/sct" />
            <code value="15053011000001100" />
            <display value="Betamethasone valerate 0.1% cream (Sigma Pharmaceuticals Plc)" />
          </coding>
        </code>
      </Medication>
    </resource>
  </entry>
  <!--    Medication Dispense    -->
  <entry>
    <fullUrl value="urn:medication-disp-1231253" />
    <resource>
      <MedicationDispense>
        <id value="urn:medication-disp-1231253" />
        <identifier>
                    <system value="urn:[organisation_name]:[system_name]" />
                    <value value="urn:2e9c6fe6-77ec-4da0-937a-ba97b5501b3f" />
                </identifier>
        <status value="in-progress" />
        <category>
          <coding>
            <system value="http://hl7.org/fhir/medication-request-category" />
            <code value="outpatient" />
            <display value="outpatient" />
          </coding>
        </category>
        <medicationReference>
          <reference value="urn:medication-15053011000001100" />
          <display value="Betamethasone valerate 0.1% cream (Sigma Pharmaceuticals Plc)" />
        </medicationReference>
        <subject>
          <reference value="urn:patient-748395739" />
          <display value="Miss Carrie Oakey" />
        </subject>
        <performer>
          <actor>
            <reference value="urn:staff-0002" />
            <display value="Dr Allo Kate" />
          </actor>
        </performer>
        <authorizingPrescription>
          <reference value="urn:med-req-342355475687898" />
        </authorizingPrescription>
        <quantity>
          <value value="30" />
          <unit value="gram" />
          <system value="http://unitsofmeasure.org" />
          <code value="g" />
        </quantity>
        <whenPrepared value="2021-05-07T16:15:32Z" />
        <dosageInstruction>
          <timing>
            <repeat>
              <duration value="2" />
              <durationUnit value="wk" />
              <frequency value="2" />
              <period value="1" />
              <periodUnit value="d" />
            </repeat>
          </timing>
          <method>
            <coding>
              <system value="http://snomed.info/sct" />
              <code value="417924000" />
              <display value="Apply" />
            </coding>
          </method>
        </dosageInstruction>
      </MedicationDispense>
    </resource>
  </entry>
</Bundle>