<!--This xml example is for illustrative purposes only and has not been clinically verified.-->
<Bundle xmlns="http://hl7.org/fhir">
  <id value="74b0087c-89ba-46c1-84ce-570334d87421" />
  <type value="message" />
  <timestamp value="2021-05-07T16:15:32Z" />
  <!--   Message Header   -->
  <entry>
    <fullUrl value="urn:message-header-167434" />
    <resource>
      <MessageHeader>
        <id value="urn:message-header-167434" />
        <eventCoding>
          <system value="http://hl7.org/fhir/message-events" />
          <code value="medication-statement" />
          <display value="Medication Statement" />
        </eventCoding>
        <source>
          <name>ACME Clinical Systems</name>
          <software>ACME ePMA</software>
          <version>3.5.68</version>
          <endpoint value="urn:nhs-uk:addressing:ods:T48NT" />
        </source>
        <focus>
          <reference value="urn:medication-statement-12312345678ijhgfd" />
        </focus>
      </MessageHeader>
    </resource>
  </entry>
  <!--Patient associated with the encounter.-->
  <entry>
    <fullUrl value="urn:patient-01020304" />
    <resource>
      <Patient>
        <id value="urn:patient-01020304" />
        <identifier>
          <system value="https://fhir.nhs.uk/Id/nhs-number" />
          <value value="2377954310" />
        </identifier>
        <name>
          <use value="official" />
          <text value="Mrs Anne Teak" />
          <family value="Teak" />
          <given value="Anne" />
          <prefix value="Mrs" />
        </name>
        <gender value="female" />
        <birthDate value="1956-02-04" />
      </Patient>
    </resource>
  </entry>
  <!--Prescribing clinician associated with the encounter. -->
  <entry>
    <fullUrl value="urn:staff-0001" />
    <resource>
      <Practitioner>
        <id value="urn:staff-0001" />
        <name>
          <text value="Dr Maikeu Well" />
          <family value="Well" />
          <given value="Maikeu" />
          <prefix value="Dr" />
        </name>
        <qualification>
          <code>
            <coding>
              <system value="https://fhir.hl7.org.uk/Id/gmc-number" />
              <code value="2145879" />
              <display value="General Medical Council" />
            </coding>
          </code>
        </qualification>
      </Practitioner>
    </resource>
  </entry>
  <!--Medication  -->
  <entry>
    <fullUrl value="urn:medication-27658006" />
    <resource>
      <Medication>
        <id value="urn:medication-27658006" />
        <code>
          <coding>
            <system value="http://snomed.info/sct" />
            <code value="27658006" />
            <display value="Amoxicillin" />
          </coding>
        </code>
      </Medication>
    </resource>
  </entry>
  <!-- Medication Statement -->
  <entry>
    <fullUrl value="urn:medication-statement-12312345678ijhgfd" />
    <resource>
      <MedicationStatement>
        <id value="urn:medication-statement-12312345678ijhgfd" />
        <status value="active" />
        <medicationReference>
          <reference value="urn:medication-27658006" />
          <display value="Amoxicillin" />
        </medicationReference>
        <subject>
          <reference value="urn:patient-01020304" />
          <display value="Mrs Anne Teak" />
        </subject>
        <category>
          <coding>
            <system value="http://hl7.org/fhir/medication-request-category" />
            <code value="inpatient" />
            <display value="inpatient" />
          </coding>
        </category>
        <dosage>
          <timing>
            <repeat>
              <frequency value="3" />
              <period value="1" />
              <periodUnit value="d" />
            </repeat>
          </timing>
          <route>
            <coding>
              <system value="http://snomed.info/sct" />
              <code value="26643006" />
              <display value="oral" />
            </coding>
          </route>
          <doseAndRate>
            <doseQuantity>
              <value value="500" />
              <unit value="milligram" />
              <system value="http://unitsofmeasure.org" />
              <code value="mg" />
            </doseQuantity>
          </doseAndRate>
        </dosage>
      </MedicationStatement>
    </resource>
  </entry>
</Bundle>