<!--    This xml example is for illustrative purposes only and has not been clinically verified.    -->
<Bundle xmlns="http://hl7.org/fhir">
  <id value="830a2a41-cca8-46a3-a35c-3237cb9828e4" />
  <type value="message" />
  <timestamp value="2021-05-07T16:15:32Z" />
  <!--     Message Header     -->
  <entry>
    <fullUrl value="urn:message-header-167434" />
    <resource>
      <MessageHeader>
        <id value="urn:message-header-167434" />
        <eventCoding>
          <system value="http://hl7.org/fhir/message-events" />
          <code value="dispense-notification" />
          <display value="Dispense Notification" />
        </eventCoding>
        <source>
          <name value="ACME Clinical Systems" />
          <software value="ACME Pharmacy" />
          <version value="4.1.15" />
          <endpoint value="urn:nhs-uk:addressing:ods:T48NT" />
        </source>
        <focus>
          <reference value="urn:med-disp-324234234" />
        </focus>
      </MessageHeader>
    </resource>
  </entry>
  <!--   Patient associated with the encounter.   -->
  <entry>
    <fullUrl value="urn:patient-113582401" />
    <resource>
      <Patient>
        <id value="urn:patient-113582401" />
        <identifier>
          <system value="https://fhir.nhs.uk/Id/nhs-number" />
          <value value="113582401" />
        </identifier>
        <name>
          <use value="official" />
          <text value="Ms Anne Teak" />
          <family value="Teak" />
          <given value="Anna" />
          <prefix value="Ms" />
        </name>
        <gender value="female" />
        <birthDate value="1987-03-29" />
      </Patient>
    </resource>
  </entry>
  <!--     Performer associated with the encounter.     -->
  <entry>
    <fullUrl value="urn:staff-0002" />
    <resource>
      <Practitioner>
        <id value="urn:staff-0002" />
        <name>
          <text value="Dr Allo Kate" />
          <family value="Kate" />
          <given value="Allo" />
          <prefix value="Dr" />
        </name>
        <qualification>
          <code>
            <coding>
              <system value="https://fhir.hl7.org.uk/Id/gpc-number" />
              <code value="123543" />
              <display value="General Pharmaceutical Council" />
            </coding>
          </code>
        </qualification>
      </Practitioner>
    </resource>
  </entry>
  <!--    Medication     -->
  <entry>
    <fullUrl value="urn:medication-39732411000001106" />
    <resource>
      <Medication>
        <id value="urn:medication-39732411000001106" />
        <code>
          <coding>
            <system value="http://snomed.info/sct" />
            <code value="39732411000001106" />
            <display value="Amoxicillin 500mg capsules" />
          </coding>
        </code>
      </Medication>
    </resource>
  </entry>
  <!--     Medication Dispense     -->
  <entry>
    <fullUrl value="urn:med-disp-324234234" />
    <resource>
      <MedicationDispense>
        <id value="urn:med-disp-324234234" />
        <identifier>
          <system value="urn:[organisation_name]:[system_name]" />
          <value value="urn:16099e16-2494-4a2b-b0e6-93eabd00c41b" />
        </identifier>
        <status value="in-progress" />
        <medicationReference>
          <reference value="urn:medication-39732411000001106" />
          <display value="Amoxicillin 500mg capsules" />
        </medicationReference>
        <subject>
          <reference value="urn:patient-113582401" />
          <display value="Ms Anne Teak" />
        </subject>
        <performer>
          <actor>
            <reference value="urn:staff-0002" />
            <display value="Dr Allo Kate" />
          </actor>
        </performer>
        <authorizingPrescription>
          <reference value="urn:med-req-1023938" />
        </authorizingPrescription>
        <quantity>
          <value value="21" />
          <unit value="tablet" />
          <system value="http://snomed.info/sct" />
          <code value="428673006" />
        </quantity>
        <whenPrepared value="2021-05-07T16:15:32Z" />
        <dosageInstruction>
          <timing>
            <repeat>
              <frequency value="3" />
              <period value="1" />
              <periodUnit value="d" />
            </repeat>
          </timing>
          <route>
            <coding>
              <system value="http://snomed.info/sct" />
              <code value="428673006" />
              <display value="oral" />
            </coding>
          </route>
          <doseAndRate>
            <doseQuantity>
              <value value="1" />
              <unit value="tablet" />
              <system value="http://snomed.info/sct" />
              <code value="428673006" />
            </doseQuantity>
          </doseAndRate>
        </dosageInstruction>
      </MedicationDispense>
    </resource>
  </entry>
</Bundle>