<!--   This xml example is for illustrative purposes only and has not been clinically verified.   -->
<Bundle xmlns="http://hl7.org/fhir">
  <id value="ba54fcc3-6128-41e5-b621-b8b84465e769" />
  <type value="message" />
  <timestamp value="2021-05-07T16:15:32Z" />
  <!--   Message Header   -->
  <entry>
    <fullUrl value="urn:message-header-167434" />
    <resource>
      <MessageHeader>
        <id value="urn:message-header-167434" />
        <eventCoding>
          <system value="http://hl7.org/fhir/message-events" />
          <code value="medication-statement" />
          <display value="Medication Statement" />
        </eventCoding>
        <source>
          <name value="ACME Clinical Systems" />
          <software value="ACME ePMA" />
          <version value="3.5.68" />
          <endpoint value="urn:nhs-uk:addressing:ods:T48NT" />
        </source>
        <focus>
          <reference value="urn:medication-statement-67843453" />
        </focus>
      </MessageHeader>
    </resource>
  </entry>
  <!--   Patient associated with the encounter.   -->
  <entry>
    <fullUrl value="urn:patient-113582401" />
    <resource>
      <Patient>
        <id value="urn:patient-113582401" />
        <identifier>
          <system value="https://fhir.nhs.uk/Id/nhs-number" />
          <value value="113582401" />
        </identifier>
        <name>
          <use value="official" />
          <text value="Ms Paige Turner" />
          <family value="Turner" />
          <given value="Paige" />
          <prefix value="Ms" />
        </name>
        <gender value="female" />
        <birthDate value="1982-11-20" />
      </Patient>
    </resource>
  </entry>
  <!--   Medication  -->
  <entry>
    <fullUrl value="urn:medication-325278007" />
    <resource>
      <Medication>
        <id value="urn:medication-325278007" />
        <code>
          <coding>
            <system value="http://snomed.info/sct" />
            <code value="325278007" />
            <display value="Metformin 500mg tablets" />
          </coding>
        </code>
      </Medication>
    </resource>
  </entry>
  <!--    Medication Statement    -->
  <entry>
    <fullUrl value="urn:medication-statement-67843453" />
    <resource>
      <MedicationStatement>
        <id value="urn:medication-statement-67843453" />
        <status value="active" />
        <category>
            <coding>
                <!--  the MedicationStatement resource does not have a suitable category value for "discharge" within the value-set  -->
                <system value="http://hl7.org/fhir/medication-statement-category" />
                <code value="inpatient" />
                <display value="Inpatient" />
            </coding>
        </category>
        <medicationReference>
          <reference value="urn:medication-325278007" />
          <display value="Metformin 500mg tablets" />
        </medicationReference>
        <subject>
          <reference value="urn:patient-113582401" />
          <display value="Ms Paige Turner" />
        </subject>
        <dosage>
          <timing>
            <repeat>
              <frequency value="2" />
              <period value="1" />
              <periodUnit value="d" />
            </repeat>
          </timing>
          <route>
            <coding>
              <system value="http://snomed.info/sct" />
              <code value="26643006" />
              <display value="oral" />
            </coding>
          </route>
          <doseAndRate>
            <doseQuantity>
              <value value="56" />
              <unit value="tablet" />
              <system value="http://snomed.info/sct" />
              <code value="428673006" />
            </doseQuantity>
          </doseAndRate>
        </dosage>
      </MedicationStatement>
    </resource>
  </entry>
</Bundle>