<Bundle xmlns="http://hl7.org/fhir">
    <id value="74b0087c-89ba-46c1-84ce-570334d87421" />
    <type value="message" />
    <timestamp value="2021-05-07T16:15:32Z" />
    <!--    Message Header    -->
    <entry>
        <fullUrl value="urn:message-header-167434" />
        <resource>
            <MessageHeader>
                <id value="urn:message-header-167434" />
                <eventCoding>
                    <system value="http://hl7.org/fhir/message-events" />
                    <code value="medication-statement" />
                    <display value="Medication Statement" />
                </eventCoding>
                <source>
                    <name value="ACME Clinical Systems" />
                    <software value="ACME ePMA" />
                    <version value="3.5.68" />
                    <endpoint value="urn:nhs-uk:addressing:ods:T48NT" />
                </source>
                <focus>
                    <reference value="urn:medication-statement-367673234" />
                </focus>
            </MessageHeader>
        </resource>
    </entry>
    <!-- Patient associated with the encounter. -->
    <entry>
        <fullUrl value="urn:patient-01020304" />
        <resource>
            <Patient>
                <id value="urn:patient-01020304" />
                <identifier>
                    <system value="https://fhir.nhs.uk/Id/nhs-number" />
                    <value value="2377954310" />
                </identifier>
                <name>
                    <use value="official" />
                    <text value="Mrs Anne Teak" />
                    <family value="Teak" />
                    <given value="Anne" />
                    <prefix value="Mrs" />
                </name>
                <gender value="female" />
                <birthDate value="1956-02-04" />
            </Patient>
        </resource>
    </entry>
    <!-- Medication   -->
    <entry>
        <fullUrl value="urn:medication-930411000001106" />
        <resource>
            <Medication>
                <id value="urn:medication-930411000001106" />
                <code>
                    <coding>
                        <system value="http://snomed.info/sct" />
                        <code value="930411000001106" />
                        <display value="Amoxicillin 500mg capsules (A A H Pharmaceuticals Ltd)" />
                    </coding>
                </code>
            </Medication>
        </resource>
    </entry>
    <!--  Medication Statement  -->
    <entry>
        <fullUrl value="urn:med-statement-367673234" />
        <resource>
            <MedicationStatement>
                <id value="urn:medication-statement-367673234" />
                <status value="active" />
                <category>
                    <coding>
                        <system value="http://hl7.org/fhir/medication-request-category" />
                        <code value="inpatient" />
                        <display value="inpatient" />
                    </coding>
                </category>
                <medicationReference>
                    <reference value="urn:medication-930411000001106" />
                    <display value="Amoxicillin 500mg capsules (A A H Pharmaceuticals Ltd)" />
                </medicationReference>
                <subject>
                    <reference value="urn:patient-01020304" />
                    <display value="Mrs Anne Teak" />
                </subject>
                <dosage>
                    <timing>
                        <repeat>
                            <frequency value="3" />
                            <period value="1" />
                            <periodUnit value="d" />
                        </repeat>
                    </timing>
                    <route>
                        <coding>
                            <system value="http://snomed.info/sct" />
                            <code value="26643006" />
                            <display value="oral" />
                        </coding>
                    </route>
                    <doseAndRate>
                        <doseQuantity>
                            <value value="1" />
                            <unit value="capsule" />
                            <system value="http://snomed.info/sct" />
                            <code value="428641000" />
                        </doseQuantity>
                    </doseAndRate>
                </dosage>
            </MedicationStatement>
        </resource>
    </entry>
</Bundle>