<!--   This xml example is for illustrative purposes only and has not been clinically verified.   -->
<Bundle xmlns="http://hl7.org/fhir">
  <id value="746f7585-4fa0-42d9-b8d8-14c71217e112" />
  <type value="message" />
  <timestamp value="2021-05-07T16:15:32Z" />
  <!--     Message Header     -->
  <entry>
    <fullUrl value="urn:message-header-167434" />
    <resource>
      <MessageHeader>
        <id value="urn:message-header-167434" />
        <eventCoding>
          <system value="http://hl7.org/fhir/message-events" />
          <code value="dispense-notification" />
          <display value="Dispense Notification" />
        </eventCoding>
        <source>
          <name value="ACME Clinical Systems" />
          <software value="ACME Pharmacy" />
          <version value="4.1.15" />
          <endpoint value="urn:nhs-uk:addressing:ods:T48NT" />
        </source>
        <focus>
          <reference value="urn:med-disp-3949490" />
        </focus>
      </MessageHeader>
    </resource>
  </entry>
  <!--  Patient associated with the encounter.  -->
  <entry>
    <fullUrl value="urn:patient-4738562854" />
    <resource>
      <Patient>
        <id value="urn:patient-4738562854" />
        <identifier>
          <system value="https://fhir.nhs.uk/Id/nhs-number" />
          <value value="4738562854" />
        </identifier>
        <name>
          <use value="official" />
          <text value="Mr Toby Lerone" />
          <family value="Lerone" />
          <given value="Toby" />
          <prefix value="Mr" />
        </name>
        <gender value="male" />
        <birthDate value="1973-02-20" />
      </Patient>
    </resource>
  </entry>
  <!--    Performer associated with the encounter.    -->
  <entry>
    <fullUrl value="urn:staff-0002" />
    <resource>
      <Practitioner>
        <id value="urn:staff-0002" />
        <name>
          <text value="Dr Allo Kate" />
          <family value="Kate" />
          <given value="Allo" />
          <prefix value="Dr" />
        </name>
        <qualification>
          <code>
            <coding>
              <system value="https://fhir.hl7.org.uk/Id/gpc-number" />
              <code value="123543" />
              <display value="General Pharmaceutical Council" />
            </coding>
          </code>
        </qualification>
      </Practitioner>
    </resource>
  </entry>
  <!--   Medication   -->
  <entry>
    <fullUrl value="urn:medication-847211000001102" />
    <resource>
      <Medication>
        <id value="urn:medication-847211000001102" />
        <code>
          <coding>
            <system value="http://snomed.info/sct" />
            <code value="847211000001102" />
            <display value="Cipramil 20mg tablets (Lundbeck Ltd)" />
          </coding>
        </code>
      </Medication>
    </resource>
  </entry>
  <!--    Medication Dispense    -->
  <entry>
    <fullUrl value="urn:med-disp-3949490" />
    <resource>
      <MedicationDispense>
        <id value="urn:med-disp-3949490" />
        <identifier>
          <system value="urn:[organisation_name]:[system_name]" />
          <value value="urn:d27292c7-1cbe-47c5-8c56-370b97c17d17" />
        </identifier>
        <status value="in-progress" />
        <medicationReference>
          <reference value="urn:medication-847211000001102" />
          <display value="Cipramil 20mg tablets (Lundbeck Ltd)" />
        </medicationReference>
        <subject>
          <reference value="urn:patient-4738562854" />
          <display value="Mr Toby Lerone" />
        </subject>
        <performer>
          <actor>
            <reference value="urn:staff-0002" />
            <display value="Dr Allo Kate" />
          </actor>
        </performer>
        <authorizingPrescription>
          <reference value="urn:med-req-12312312" />
        </authorizingPrescription>
        <quantity>
          <value value="3" />
          <unit value="tablet" />
          <system value="http://snomed.info/sct" />
          <code value="428673006" />
        </quantity>
        <daysSupply>
          <value value="3" />
          <unit value="Day" />
          <system value="http://unitsofmeasure.org" />
          <code value="d" />
        </daysSupply>
        <whenPrepared value="2021-05-07T16:15:32Z" />
        <dosageInstruction>
          <timing>
            <repeat>
              <frequency value="1" />
              <period value="1" />
              <periodUnit value="d" />
            </repeat>
          </timing>
          <route>
            <coding>
              <system value="http://snomed.info/sct" />
              <code value="428673006" />
              <display value="oral" />
            </coding>
          </route>
          <doseAndRate>
            <doseQuantity>
              <value value="1" />
              <unit value="tablet" />
              <system value="http://snomed.info/sct" />
              <code value="428641000" />
            </doseQuantity>
          </doseAndRate>
        </dosageInstruction>
      </MedicationDispense>
    </resource>
  </entry>
</Bundle>