{
	"resourceType": "Bundle",
	"id": "0cb82cfa-76c8-4fb2-a08e-bf0e326e5487",
	"identifier": {
		"system": "https://tools.ietf.org/html/rfc4122",
		"value": "0727c18b-c765-4927-9219-5dd1cf8d8718"
	},
	"type": "message",
	"entry": [
		{
			"fullUrl": "urn:uuid:17773b27-427e-4940-8c16-64cdac715001",
			"resource": {
				"resourceType": "MessageHeader",
				"eventCoding": {
					"system": "https://fhir.nhs.uk/CodeSystem/message-event",
					"code": "prescription-order",
					"display": "Prescription Order"
				},
				"sender": {
					"identifier": {
						"system": "https://fhir.nhs.uk/Id/ods-organization-code",
						"value": "A83008"
					},
					"display": "HALLGARTH SURGERY"
				},
				"source": {
					"endpoint": "urn:nhs-uk:addressing:ods:A83008"
				},
				"destination": [
					{
						"endpoint": "https://sandbox.api.service.nhs.uk/electronic-prescriptions/$post-message",
						"receiver": {
							"identifier": {
								"system": "https://fhir.nhs.uk/Id/ods-organization-code",
								"value": "FK994"
							}
						}
					}
				],
				"focus": [
					{
						"reference": "urn:uuid:56166769-c1c4-4d07-afa8-132b5dfca666"
					}
				]
			}
		},
		{
			"fullUrl": "urn:uuid:78d3c2eb-009e-4ec8-a358-b042954aa9b2",
			"resource": {
				"resourceType": "Patient",
				"identifier": [
					{
						"system": "https://fhir.nhs.uk/Id/nhs-number",
						"value": "9449304130"
					}
				],
				"name": [
					{
						"use": "usual",
						"family": "TWITCHETT",
						"given": [
							"STACEY",
							"MARISA"
						],
						"prefix": [
							"MS"
						]
					}
				],
				"gender": "female",
				"birthDate": "1948-04-30",
				"address": [
					{
						"use": "home",
						"line": [
							"10 HEATHFIELD",
							"COBHAM",
							"SURREY"
						],
						"postalCode": "KT11 2QY"
					}
				],
				"generalPractitioner": [
					{
						"identifier": {
							"system": "https://fhir.nhs.uk/Id/ods-organization-code",
							"value": "A83008"
						}
					}
				]
			}
		},
		{
			"fullUrl": "urn:uuid:a8c85454-f8cb-498d-9629-78e2cb5fa47a",
			"resource": {
				"resourceType": "Practitioner",
				"identifier": [
					{
						"system": "https://fhir.nhs.uk/Id/sds-user-id",
						"value": "555086689106"
					},
					{
						"system": "https://fhir.hl7.org.uk/Id/gmc-number",
						"value": "6095103"
					},
					{
						"system": "https://fhir.hl7.org.uk/Id/din-number",
						"value": "977677"
					}
				],
				"name": [
					{
						"family": "BOIN",
						"given": [
							"C"
						],
						"prefix": [
							"DR"
						]
					}
				]
			}
		},
		{
			"fullUrl": "urn:uuid:56166769-c1c4-4d07-afa8-132b5dfca666",
			"resource": {
				"resourceType": "PractitionerRole",
				"identifier": [
					{
						"system": "https://fhir.nhs.uk/Id/sds-role-profile-id",
						"value": "200102238987"
					}
				],
				"practitioner": {
					"reference": "urn:uuid:a8c85454-f8cb-498d-9629-78e2cb5fa47a"
				},
				"organization": {
					"reference": "urn:uuid:3b4b03a5-52ba-4ba6-9b82-70350aa109d8"
				},
				"code": [
					{
						"coding": [
							{
								"system": "https://fhir.hl7.org.uk/CodeSystem/UKCore-SDSJobRoleName",
								"code": "R8000",
								"display": "Clinical Practitioner Access Role"
							}
						]
					}
				],
				"telecom": [
					{
						"system": "phone",
						"use": "work",
						"value": "01234567890"
					}
				]
			}
		},
		{
			"fullUrl": "urn:uuid:3b4b03a5-52ba-4ba6-9b82-70350aa109d8",
			"resource": {
				"resourceType": "Organization",
				"identifier": [
					{
						"system": "https://fhir.nhs.uk/Id/ods-organization-code",
						"value": "A83008"
					}
				],
				"type": [
					{
						"coding": [
							{
								"system": "https://fhir.nhs.uk/CodeSystem/organisation-role",
								"code": "76",
								"display": "GP PRACTICE"
							}
						]
					}
				],
				"name": "HALLGARTH SURGERY",
				"address": [
					{
						"use": "work",
						"type": "both",
						"line": [
							"HALLGARTH SURGERY",
							"CHEAPSIDE"
						],
						"city": "SHILDON",
						"district": "COUNTY DURHAM",
						"postalCode": "DL4 2HP"
					}
				],
				"telecom": [
					{
						"system": "phone",
						"use": "work",
						"value": "0115 9737320"
					}
				],
				"partOf": {
					"identifier": {
						"system": "https://fhir.nhs.uk/Id/ods-organization-code",
						"value": "84H"
					},
					"display": "NHS COUNTY DURHAM CCG"
				}
			}
		}
	]
}