{
	"resourceType": "Bundle",
	"id": "0cb82cfa-76c8-4fb2-a08e-bf0e326e5487",
	"identifier": {
		"system": "https://tools.ietf.org/html/rfc4122",
		"value": "0727c18b-c765-4927-9219-5dd1cf8d8718"
	},
	"type": "message",
	"entry": [
		{
			"fullUrl": "urn:uuid:17773b27-427e-4940-8c16-64cdac715001",
			"resource": {
				"resourceType": "MessageHeader",
				"eventCoding": {
					"system": "https://fhir.nhs.uk/CodeSystem/message-event",
					"code": "prescription-order",
					"display": "Prescription Order"
				},
				"sender": {
					"identifier": {
						"system": "https://fhir.nhs.uk/Id/ods-organization-code",
						"value": "A83008"
					},
					"display": "HALLGARTH SURGERY"
				},
				"source": {
					"endpoint": "urn:nhs-uk:addressing:ods:A83008"
				},
				"destination": [
					{
						"endpoint": "https://sandbox.api.service.nhs.uk/electronic-prescriptions/$post-message",
						"receiver": {
							"identifier": {
								"system": "https://fhir.nhs.uk/Id/ods-organization-code",
								"value": "FK994"
							}
						}
					}
				],
				"focus": [
					{
						"reference": "urn:uuid:56166769-c1c4-4d07-afa8-132b5dfca666"
					},
					{
						"reference": "urn:uuid:f0521c5e-c946-4db4-bf80-dd82fc1fc90d"
					},
					{
						"reference": "urn:uuid:29ef97c4-b5d7-4796-b67e-75fe60e805ea"
					}
				]
			}
		},
		{
			"fullUrl": "urn:uuid:a8c85454-f8cb-498d-9629-78e2cb5fa47a",
			"resource": {
				"resourceType": "Practitioner",
				"identifier": [
					{
						"system": "https://fhir.nhs.uk/Id/sds-user-id",
						"value": "555086689106"
					},
					{
						"system": "https://fhir.hl7.org.uk/Id/gmc-number",
						"value": "6095103"
					},
					{
						"system": "https://fhir.hl7.org.uk/Id/din-number",
						"value": "977677"
					}
				],
				"name": [
					{
						"family": "BOIN",
						"given": [
							"C"
						],
						"prefix": [
							"DR"
						]
					}
				]
			}
		},
		{
			"fullUrl": "urn:uuid:56166769-c1c4-4d07-afa8-132b5dfca666",
			"resource": {
				"resourceType": "PractitionerRole",
				"identifier": [
					{
						"system": "https://fhir.nhs.uk/Id/sds-role-profile-id",
						"value": "200102238987"
					}
				],
				"practitioner": {
					"reference": "urn:uuid:a8c85454-f8cb-498d-9629-78e2cb5fa47a"
				},
				"organization": {
					"reference": "urn:uuid:3b4b03a5-52ba-4ba6-9b82-70350aa109d8"
				},
				"code": [
					{
						"coding": [
							{
								"system": "https://fhir.hl7.org.uk/CodeSystem/UKCore-SDSJobRoleName",
								"code": "R8000",
								"display": "Clinical Practitioner Access Role"
							}
						]
					}
				],
				"telecom": [
					{
						"system": "phone",
						"use": "work",
						"value": "01234567890"
					}
				]
			}
		},
		{
			"fullUrl": "urn:uuid:3b4b03a5-52ba-4ba6-9b82-70350aa109d8",
			"resource": {
				"resourceType": "Organization",
				"identifier": [
					{
						"system": "https://fhir.nhs.uk/Id/ods-organization-code",
						"value": "A83008"
					}
				],
				"type": [
					{
						"coding": [
							{
								"system": "https://fhir.nhs.uk/CodeSystem/organisation-role",
								"code": "76",
								"display": "GP PRACTICE"
							}
						]
					}
				],
				"name": "HALLGARTH SURGERY",
				"address": [
					{
						"use": "work",
						"type": "both",
						"line": [
							"HALLGARTH SURGERY",
							"CHEAPSIDE"
						],
						"city": "SHILDON",
						"district": "COUNTY DURHAM",
						"postalCode": "DL4 2HP"
					}
				],
				"telecom": [
					{
						"system": "phone",
						"use": "work",
						"value": "0115 9737320"
					}
				],
				"partOf": {
					"identifier": {
						"system": "https://fhir.nhs.uk/Id/ods-organization-code",
						"value": "84H"
					},
					"display": "NHS COUNTY DURHAM CCG"
				}
			}
		},
		{
			"fullUrl": "urn:uuid:f0521c5e-c946-4db4-bf80-dd82fc1fc90d",
			"resource": {
				"resourceType": "MedicationRequest",
				"medicationCodeableConcept": {
					"coding": [
						{
							"system": "http://snomed.info/sct",
							"code": "325427002",
							"display": "Prednisolone 5mg tablets"
						}
					]
				},
				"extension": [
					{
						"url": "https://fhir.nhs.uk/StructureDefinition/Extension-DM-PrescriptionType",
						"valueCoding": {
							"system": "https://fhir.nhs.uk/CodeSystem/prescription-type",
							"code": "0101",
							"display": "Primary Care Prescriber - Medical Prescriber"
						}
					}
				],
				"identifier": [
					{
						"system": "https://fhir.nhs.uk/Id/prescription-order-item-number",
						"value": "TBC"
					}
				],
				"status": "active",
				"intent": "order",
				"subject": {
					"reference": "urn:uuid:29ef97c4-b5d7-4796-b67e-75fe60e805ea"
				},
				"authoredOn": "2022-11-21T11:37:15.572Z",
				"category": [
					{
						"coding": [
							{
								"system": "http://terminology.hl7.org/CodeSystem/medicationrequest-category",
								"code": "community",
								"display": "Community"
							}
						]
					}
				],
				"requester": {
					"reference": "urn:uuid:56166769-c1c4-4d07-afa8-132b5dfca666"
				},
				"groupIdentifier": {
					"system": "https://fhir.nhs.uk/Id/prescription-order-number",
					"value": "628738-A83008-7EFE6P",
					"extension": [
						{
							"url": "https://fhir.nhs.uk/StructureDefinition/Extension-DM-PrescriptionId",
							"valueIdentifier": {
								"system": "https://fhir.nhs.uk/Id/prescription",
								"value": "5b6a427a-c24c-4b16-9d3f-59a794280dc3"
							}
						}
					]
				},
				"courseOfTherapyType": {
					"coding": [
						{
							"system": "http://terminology.hl7.org/CodeSystem/medicationrequest-course-of-therapy",
							"code": "acute",
							"display": "Short course (acute) therapy"
						}
					]
				},
				"dosageInstruction": [
					{
						"sequence": 1,
						"text": "EIGHT (8) tablets to be taken DAILY for two days. Take these tablets with or after food.",
						"timing": {
							"repeat": {
								"boundsDuration": {
									"value": 2,
									"unit": "day",
									"system": "http://unitsofmeasure.org",
									"code": "d"
								},
								"frequency": 8,
								"period": 1,
								"periodUnit": "d"
							}
						},
						"doseAndRate": [
							{
								"doseQuantity": {
									"value": 5,
									"unit": "milligram",
									"system": "http://unitsofmeasure.org",
									"code": "mg"
								}
							}
						]
					},
					{
						"sequence": 2,
						"text": "SEVEN (7) tablets to be taken DAILY for two days. Take these tablets with or after food.",
						"timing": {
							"repeat": {
								"boundsDuration": {
									"value": 2,
									"unit": "day",
									"system": "http://unitsofmeasure.org",
									"code": "d"
								},
								"frequency": 7,
								"period": 1,
								"periodUnit": "d"
							}
						},
						"doseAndRate": [
							{
								"doseQuantity": {
									"value": 5,
									"unit": "milligram",
									"system": "http://unitsofmeasure.org",
									"code": "mg"
								}
							}
						]
					},
					{
						"sequence": 3,
						"text": "SIX (6) tablets to be taken DAILY for two days. Take these tablets with or after food.",
						"timing": {
							"repeat": {
								"boundsDuration": {
									"value": 2,
									"unit": "day",
									"system": "http://unitsofmeasure.org",
									"code": "d"
								},
								"frequency": 6,
								"period": 1,
								"periodUnit": "d"
							}
						},
						"doseAndRate": [
							{
								"doseQuantity": {
									"value": 5,
									"unit": "milligram",
									"system": "http://unitsofmeasure.org",
									"code": "mg"
								}
							}
						]
					},
					{
						"sequence": 4,
						"text": "FIVE (5) tablets to be taken DAILY for two days. Take these tablets with or after food.",
						"timing": {
							"repeat": {
								"boundsDuration": {
									"value": 2,
									"unit": "day",
									"system": "http://unitsofmeasure.org",
									"code": "d"
								},
								"frequency": 5,
								"period": 1,
								"periodUnit": "d"
							}
						},
						"doseAndRate": [
							{
								"doseQuantity": {
									"value": 5,
									"unit": "milligram",
									"system": "http://unitsofmeasure.org",
									"code": "mg"
								}
							}
						]
					},
					{
						"sequence": 5,
						"text": "FOUR (4) tablets to be taken DAILY for two days. Take these tablets with or after food.",
						"timing": {
							"repeat": {
								"boundsDuration": {
									"value": 2,
									"unit": "day",
									"system": "http://unitsofmeasure.org",
									"code": "d"
								},
								"frequency": 4,
								"period": 1,
								"periodUnit": "d"
							}
						},
						"doseAndRate": [
							{
								"doseQuantity": {
									"value": 5,
									"unit": "milligram",
									"system": "http://unitsofmeasure.org",
									"code": "mg"
								}
							}
						]
					},
					{
						"sequence": 6,
						"text": "THREE (3) tablets to be taken DAILY for two days. Take these tablets with or after food.",
						"timing": {
							"repeat": {
								"boundsDuration": {
									"value": 2,
									"unit": "day",
									"system": "http://unitsofmeasure.org",
									"code": "d"
								},
								"frequency": 3,
								"period": 1,
								"periodUnit": "d"
							}
						},
						"doseAndRate": [
							{
								"doseQuantity": {
									"value": 5,
									"unit": "milligram",
									"system": "http://unitsofmeasure.org",
									"code": "mg"
								}
							}
						]
					},
					{
						"sequence": 7,
						"text": "TWO (2) tablets to be taken DAILY for two days. Take these tablets with or after food.",
						"timing": {
							"repeat": {
								"boundsDuration": {
									"value": 2,
									"unit": "day",
									"system": "http://unitsofmeasure.org",
									"code": "d"
								},
								"frequency": 2,
								"period": 1,
								"periodUnit": "d"
							}
						},
						"doseAndRate": [
							{
								"doseQuantity": {
									"value": 5,
									"unit": "milligram",
									"system": "http://unitsofmeasure.org",
									"code": "mg"
								}
							}
						]
					},
					{
						"sequence": 8,
						"text": "ONE (1) tablet to be taken DAILY for two days. Take these tablets with or after food.",
						"timing": {
							"repeat": {
								"boundsDuration": {
									"value": 2,
									"unit": "day",
									"system": "http://unitsofmeasure.org",
									"code": "d"
								},
								"frequency": 1,
								"period": 1,
								"periodUnit": "d"
							}
						},
						"doseAndRate": [
							{
								"doseQuantity": {
									"value": 5,
									"unit": "milligram",
									"system": "http://unitsofmeasure.org",
									"code": "mg"
								}
							}
						]
					}
				],
				"dispenseRequest": {
					"extension": [
						{
							"url": "https://fhir.nhs.uk/StructureDefinition/Extension-DM-PerformerSiteType",
							"valueCoding": {
								"system": "https://fhir.nhs.uk/CodeSystem/dispensing-site-preference",
								"code": "P1"
							}
						}
					],
					"quantity": {
						"value": 72,
						"unit": "tablet",
						"system": "http://snomed.info/sct",
						"code": "428673006"
					},
					"validityPeriod": {
						"start": "2022-10-20",
						"end": "2023-03-20"
					},
					"expectedSupplyDuration": {
						"value": 30,
						"unit": "day",
						"system": "http://unitsofmeasure.org",
						"code": "d"
					},
					"performer": {
						"identifier": {
							"system": "https://fhir.nhs.uk/Id/ods-organization-code",
							"value": "FK994"
						}
					}
				},
				"substitution": {
					"allowedBoolean": false
				}
			}
		},
		{
			"fullUrl": "urn:uuid:29ef97c4-b5d7-4796-b67e-75fe60e805ea",
			"resource": {
				"resourceType": "Patient",
				"identifier": [
					{
						"system": "https://fhir.nhs.uk/Id/nhs-number",
						"value": "9449304130"
					}
				],
				"name": [
					{
						"use": "usual",
						"family": "TWITCHETT",
						"given": [
							"STACEY",
							"MARISA"
						],
						"prefix": [
							"MS"
						]
					}
				],
				"gender": "female",
				"birthDate": "1948-04-30",
				"address": [
					{
						"use": "home",
						"line": [
							"10 HEATHFIELD",
							"COBHAM",
							"SURREY"
						],
						"postalCode": "KT11 2QY"
					}
				],
				"generalPractitioner": [
					{
						"identifier": {
							"system": "https://fhir.nhs.uk/Id/ods-organization-code",
							"value": "A83008"
						}
					}
				]
			}
		}
	]
}