{
  "resourceType": "Bundle",
  "id": "1b36355c-ee52-4d1a-ae06-45c6f08380td",
  "meta": {
    "versionId": "9b2459d6-ffa8-4ecb-97e5-7bf0fac15e87",
    "lastUpdated": "2020-12-23T14:39:37.969+00:00"
  },
  "type": "collection",
  "entry": [
    {
      "fullUrl": "Observation/6e963159-6b55-4793-9a26-a87bf4dd45e8",
      "resource": {
        "resourceType": "Observation",
        "id": "21344a45-2660-45d1-9fb3-49e54d14b662",
        "identifier": [
          {
            "system": "https://tools.ietf.org/html/rfc4122",
            "value": "7188c7ad-7802-4d43-9775-4d9d684600d5"
          }
        ],
        "status": "final",
        "category": [
          {
            "coding": [
              {
                "system": "http://terminology.hl7.org/CodeSystem/observation-category",
                "code": "survey",
                "display": "Survey"
              }
            ]
          }
        ],
        "code": {
          "coding": [
            {
              "system": "http://snomed.info/sct",
              "code": "1363261000000104",
              "display": "NPEWS (National Paediatric Early Warning Score) - total score"
            }
          ]
        },
        "subject": {
          "reference": "Patient/40b4f492-48ed-4181-97a7-452adc31580c"
        },
        "effectiveDateTime": "2018-10-04T14:17:59+01:00",
        "performer": [
          {
            "reference": "Practitioner/7096e518-2638-4c00-ab0e-504c20cd50b6"
          },
          {
            "reference": "Organization/25d5ad55-5657-4cbe-9b8b-2e993f19286e"
          }
        ],
        "valueQuantity": {
          "value": 12,
          "unit": "ScoreOf",
          "system": "http://unitsofmeasure.org",
          "code": "{ScoreOf}"
        },
        "derivedFrom": [
          {
            "reference": "Observation/fc6c6fa5-d8e8-4634-a19a-985325077cb2"
          },
          {
            "reference": "Observation/638c6821-eb51-4f1b-b8c0-5269d1df9b7c"
          },
          {
            "reference": "Observation/5a1625e8-938e-4c19-9d3e-a235bfb4b37d"
          },
          {
            "reference": "Observation/c756fd32-f04e-45a9-b02f-2461ed53c736"
          },
          {
            "reference": "Observation/1a1273f4-dd78-4bb4-bb98-ed6456caa2a2"
          },
          {
            "reference": "Observation/f0d26102-3a50-4993-9203-6089b625fc2f"
          },
          {
            "reference": "Observation/dbf6ec86-ebd7-4490-8586-596328519ed2"
          }
        ],
        "component": [
          {
            "code": {
              "coding": [
                {
                  "system": "http://snomed.info/sct",
                  "code": "1363271000000106",
                  "display": "NPEWS (National Paediatric Early Warning Score) - respiration rate score"
                }
              ]
            },
            "valueQuantity": {
              "value": 1,
              "unit": "ScoreOf",
              "system": "http://unitsofmeasure.org",
              "code": "{ScoreOf}"
            }
          },
          {
            "code": {
              "coding": [
                {
                  "system": "http://snomed.info/sct",
                  "code": "1363301000000109",
                  "display": "NPEWS (National Paediatric Early Warning Score) - respiratory distress score"
                }
              ]
            },
            "valueQuantity": {
              "value": 1,
              "unit": "ScoreOf",
              "system": "http://unitsofmeasure.org",
              "code": "{ScoreOf}"
            }
          },
          {
            "code": {
              "coding": [
                {
                  "system": "http://snomed.info/sct",
                  "code": "1363311000000106",
                  "display": "NPEWS (National Paediatric Early Warning Score) - peripheral oxygen saturation score"
                }
              ]
            },
            "valueQuantity": {
              "value": 1,
              "unit": "ScoreOf",
              "system": "http://unitsofmeasure.org",
              "code": "{ScoreOf}"
            }
          },
          {
            "code": {
              "coding": [
                {
                  "system": "http://snomed.info/sct",
                  "code": "1363321000000100",
                  "display": "NPEWS (National Paediatric Early Warning Score) - inspired oxygen score"
                }
              ]
            },
            "valueQuantity": {
              "value": 2,
              "unit": "ScoreOf",
              "system": "http://unitsofmeasure.org",
              "code": "{ScoreOf}"
            }
          },
          {
            "code": {
              "coding": [
                {
                  "system": "http://snomed.info/sct",
                  "code": "1363331000000103",
                  "display": "NPEWS (National Paediatric Early Warning Score) - heart rate score"
                }
              ]
            },
            "valueQuantity": {
              "value": 1,
              "unit": "ScoreOf",
              "system": "http://unitsofmeasure.org",
              "code": "{ScoreOf}"
            }
          },
          {
            "code": {
              "coding": [
                {
                  "system": "http://snomed.info/sct",
                  "code": "1363291000000105",
                  "display": "NPEWS (National Paediatric Early Warning Score) - systolic blood pressure score"
                }
              ]
            },
            "valueQuantity": {
              "value": 1,
              "unit": "ScoreOf",
              "system": "http://unitsofmeasure.org",
              "code": "{ScoreOf}"
            }
          },
          {
            "code": {
              "coding": [
                {
                  "system": "http://snomed.info/sct",
                  "code": "1363341000000107",
                  "display": "NPEWS (National Paediatric Early Warning Score) - capillary refill time score"
                }
              ]
            },
            "valueQuantity": {
              "value": 3,
              "unit": "ScoreOf",
              "system": "http://unitsofmeasure.org",
              "code": "{ScoreOf}"
            }
          },
          {
            "code": {
              "coding": [
                {
                  "system": "http://snomed.info/sct",
                  "code": "1363351000000105",
                  "display": "NPEWS (National Paediatric Early Warning Score) - consciousness score"
                }
              ]
            },
            "valueQuantity": {
              "value": 1,
              "unit": "ScoreOf",
              "system": "http://unitsofmeasure.org",
              "code": "{ScoreOf}"
            }
          },
          {
            "code": {
              "coding": [
                {
                  "system": "http://snomed.info/sct",
                  "code": "1363361000000108",
                  "display": "NPEWS (National Paediatric Early Warning Score) - temperature score"
                }
              ]
            },
            "valueQuantity": {
              "value": 1,
              "unit": "ScoreOf",
              "system": "http://unitsofmeasure.org",
              "code": "{ScoreOf}"
            }
          }
        ]
      }
    },
    {
      "fullUrl": "Observation/f47cb818-29e1-49db-ae6c-19ddf0303ead",
      "resource": {
        "resourceType": "Observation",
        "id": "f47cb818-29e1-49db-ae6c-19ddf0303ead",
        "identifier": [
          {
            "system": "https://tools.ietf.org/html/rfc4122",
            "value": "15135902-f182-4b73-a53d-f621670194be"
          }
        ],
        "status": "final",
        "category": [
          {
            "coding": [
              {
                "system": "http://terminology.hl7.org/CodeSystem/observation-category",
                "code": "vital-signs",
                "display": "Vital Signs"
              }
            ]
          }
        ],
        "code": {
          "coding": [
            {
              "system": "http://snomed.info/sct",
              "code": "86290005",
              "display": "Respiratory rate"
            },
            {
              "system": "http://loinc.org",
              "code": "9279-1",
              "display": "Respiratory Rate"
            }
          ]
        },
        "subject": {
          "reference": "Patient/40b4f492-48ed-4181-97a7-452adc31580c"
        },
        "effectiveDateTime": "2018-10-04T14:17:59+01:00",
        "performer": [
          {
            "reference": "Practitioner/7096e518-2638-4c00-ab0e-504c20cd50b6"
          },
          {
            "reference": "Organization/25d5ad55-5657-4cbe-9b8b-2e993f19286e"
          }
        ],
        "valueQuantity": {
          "value": 21,
          "unit": "Breaths / minute",
          "system": "http://unitsofmeasure.org",
          "code": "{Breaths}/min"
        }
      }
    },
    {
      "fullUrl": "Observation/f0d26102-3a50-4993-9203-6089b625fc2f",
      "resource": {
        "resourceType": "Observation",
        "id": "f0d26102-3a50-4993-9203-6089b625fc2f",
        "identifier": [
          {
            "system": "https://tools.ietf.org/html/rfc4122",
            "value": "5c376658-6818-4e6f-86b2-c2495626bc47"
          }
        ],
        "status": "final",
        "category": [
          {
            "coding": [
              {
                "system": "http://terminology.hl7.org/CodeSystem/observation-category",
                "code": "vital-signs",
                "display": "Vital Signs"
              }
            ]
          }
        ],
        "code": {
          "coding": [
            {
              "system": "http://snomed.info/sct",
              "code": "364075005",
              "display": "Heart rate"
            },
            {
              "system": "http://loinc.org",
              "code": "8867-4",
              "display": "Heart rate"
            }
          ]
        },
        "subject": {
          "reference": "Patient/40b4f492-48ed-4181-97a7-452adc31580c"
        },
        "effectiveDateTime": "2018-10-04T14:17:59+01:00",
        "performer": [
          {
            "reference": "Practitioner/7096e518-2638-4c00-ab0e-504c20cd50b6"
          },
          {
            "reference": "Organization/25d5ad55-5657-4cbe-9b8b-2e993f19286e"
          }
        ],
        "valueQuantity": {
          "value": 48,
          "unit": "heart beats per minute",
          "system": "http://unitsofmeasure.org",
          "code": "{beats}/min"
        }
      }
    },
    {
      "fullUrl": "Observation/1a1273f4-dd78-4bb4-bb98-ed6456caa2a2",
      "resource": {
        "resourceType": "Observation",
        "id": "1a1273f4-dd78-4bb4-bb98-ed6456caa2a2",
        "identifier": [
          {
            "system": "https://tools.ietf.org/html/rfc4122",
            "value": "deaa6c1a-b5d6-40a9-b12c-3f87e2b89105"
          }
        ],
        "status": "final",
        "category": [
          {
            "coding": [
              {
                "system": "http://terminology.hl7.org/CodeSystem/observation-category",
                "code": "vital-signs",
                "display": "Vital Signs"
              }
            ]
          }
        ],
        "code": {
          "coding": [
            {
              "system": "http://snomed.info/sct",
              "code": "103228002",
              "display": "Hemoglobin saturation with oxygen"
            },
            {
              "system": "http://loinc.org",
              "code": "2708-6",
              "display": "Oxygen saturation in Arterial blood"
            }
          ]
        },
        "subject": {
          "reference": "Patient/40b4f492-48ed-4181-97a7-452adc31580c"
        },
        "effectiveDateTime": "2018-10-04T14:17:59+01:00",
        "performer": [
          {
            "reference": "Practitioner/7096e518-2638-4c00-ab0e-504c20cd50b6"
          },
          {
            "reference": "Organization/25d5ad55-5657-4cbe-9b8b-2e993f19286e"
          }
        ],
        "valueQuantity": {
          "value": 95,
          "unit": "percent",
          "system": "http://unitsofmeasure.org",
          "code": "%"
        }
      }
    },
    {
      "fullUrl": "Observation/c756fd32-f04e-45a9-b02f-2461ed53c736",
      "resource": {
        "resourceType": "Observation",
        "id": "c756fd32-f04e-45a9-b02f-2461ed53c736",
        "identifier": [
          {
            "system": "https://tools.ietf.org/html/rfc4122",
            "value": "021ad131-5740-4090-a4ad-6f07506d17e7"
          }
        ],
        "status": "final",
        "category": [
          {
            "coding": [
              {
                "system": "http://terminology.hl7.org/CodeSystem/observation-category",
                "code": "survey",
                "display": "Survey"
              }
            ]
          }
        ],
        "code": {
          "coding": [
            {
              "system": "http://snomed.info/sct",
              "code": "722742002",
              "display": "Breathing room air"
            }
          ]
        },
        "subject": {
          "reference": "Patient/40b4f492-48ed-4181-97a7-452adc31580c"
        },
        "effectiveDateTime": "2018-10-04T14:17:59+01:00",
        "performer": [
          {
            "reference": "Practitioner/7096e518-2638-4c00-ab0e-504c20cd50b6"
          },
          {
            "reference": "Organization/25d5ad55-5657-4cbe-9b8b-2e993f19286e"
          }
        ]
      }
    },
    {
      "fullUrl": "Observation/5a1625e8-938e-4c19-9d3e-a235bfb4b37d",
      "resource": {
        "resourceType": "Observation",
        "id": "5a1625e8-938e-4c19-9d3e-a235bfb4b37d",
        "identifier": [
          {
            "system": "https://tools.ietf.org/html/rfc4122",
            "value": "07907fc7-4a38-49af-b1cf-17503fdd1fa5"
          }
        ],
        "status": "final",
        "category": [
          {
            "coding": [
              {
                "system": "http://terminology.hl7.org/CodeSystem/observation-category",
                "code": "vital-signs",
                "display": "Vital Signs"
              }
            ]
          }
        ],
        "code": {
          "coding": [
            {
              "system": "http://snomed.info/sct",
              "code": "276885007",
              "display": "Core body temperature"
            },
            {
              "system": "http://loinc.org",
              "code": "8310-5",
              "display": "Body temperature"
            }
          ]
        },
        "subject": {
          "reference": "Patient/40b4f492-48ed-4181-97a7-452adc31580c"
        },
        "effectiveDateTime": "2018-10-04T14:17:59+01:00",
        "performer": [
          {
            "reference": "Practitioner/7096e518-2638-4c00-ab0e-504c20cd50b6"
          },
          {
            "reference": "Organization/25d5ad55-5657-4cbe-9b8b-2e993f19286e"
          }
        ],
        "valueQuantity": {
          "value": 36.5,
          "unit": "degree Celsius",
          "system": "http://unitsofmeasure.org",
          "code": "Cel"
        }
      }
    },
    {
      "fullUrl": "Observation/638c6821-eb51-4f1b-b8c0-5269d1df9b7c",
      "resource": {
        "resourceType": "Observation",
        "id": "638c6821-eb51-4f1b-b8c0-5269d1df9b7c",
        "identifier": [
          {
            "system": "https://tools.ietf.org/html/rfc4122",
            "value": "068c5c3c-cf11-4f7a-a58a-c445e9848657"
          }
        ],
        "status": "final",
        "category": [
          {
            "coding": [
              {
                "system": "http://terminology.hl7.org/CodeSystem/observation-category",
                "code": "vital-signs",
                "display": "Vital Signs"
              }
            ]
          }
        ],
        "code": {
          "coding": [
            {
              "system": "http://snomed.info/sct",
              "code": "75367002",
              "display": "Blood pressure"
            },
            {
              "system": "http://loinc.org",
              "code": "85354-9",
              "display": "Blood pressure panel with all children optional"
            }
          ]
        },
        "subject": {
          "reference": "Patient/40b4f492-48ed-4181-97a7-452adc31580c"
        },
        "effectiveDateTime": "2018-10-04T14:17:59+01:00",
        "performer": [
          {
            "reference": "Practitioner/7096e518-2638-4c00-ab0e-504c20cd50b6"
          },
          {
            "reference": "Organization/25d5ad55-5657-4cbe-9b8b-2e993f19286e"
          }
        ],
        "component": [
          {
            "code": {
              "coding": [
                {
                  "system": "http://snomed.info/sct",
                  "code": "72313002",
                  "display": "Systolic arterial pressure"
                },
                {
                  "system": "http://loinc.org",
                  "code": "8480-6",
                  "display": "Systolic blood pressure"
                }
              ]
            },
            "valueQuantity": {
              "value": 120,
              "unit": "millimeter of mercury",
              "system": "http://unitsofmeasure.org",
              "code": "mm[Hg]"
            }
          },
          {
            "code": {
              "coding": [
                {
                  "system": "http://snomed.info/sct",
                  "code": "1091811000000102",
                  "display": "Diastolic arterial pressure"
                },
                {
                  "system": "http://loinc.org",
                  "code": "8462-4",
                  "display": "Diastolic blood pressure"
                }
              ]
            },
            "valueQuantity": {
              "value": 80,
              "unit": "millimeter of mercury",
              "system": "http://unitsofmeasure.org",
              "code": "mm[Hg]"
            }
          }
        ]
      }
    },
    {
      "fullUrl": "Observation/fc6c6fa5-d8e8-4634-a19a-985325077cb2",
      "resource": {
        "resourceType": "Observation",
        "id": "fc6c6fa5-d8e8-4634-a19a-985325077cb2",
        "identifier": [
          {
            "system": "https://tools.ietf.org/html/rfc4122",
            "value": "9b9bc394-4a40-4f02-97fc-049ff8d0776b"
          }
        ],
        "status": "final",
        "category": [
          {
            "coding": [
              {
                "system": "http://terminology.hl7.org/CodeSystem/observation-category",
                "code": "survey",
                "display": "Survey"
              }
            ]
          }
        ],
        "code": {
          "coding": [
            {
              "system": "http://snomed.info/sct",
              "code": "300202002",
              "display": "Responds to voice"
            }
          ]
        },
        "subject": {
          "reference": "Patient/40b4f492-48ed-4181-97a7-452adc31580c"
        },
        "effectiveDateTime": "2018-10-04T14:17:59+01:00",
        "performer": [
          {
            "reference": "Practitioner/7096e518-2638-4c00-ab0e-504c20cd50b6"
          },
          {
            "reference": "Organization/25d5ad55-5657-4cbe-9b8b-2e993f19286e"
          }
        ]
      }
    },
    {
      "fullUrl": "Practitioner/7096e518-2638-4c00-ab0e-504c20cd50b6",
      "resource": {
        "resourceType": "Practitioner",
        "id": "7096e518-2638-4c00-ab0e-504c20cd50b6",
        "identifier": [
          {
            "system": "https://fhir.nhs.uk/Id/sds-user-id",
            "value": "G61224777"
          }
        ],
        "name": [
          {
            "family": "Rastall",
            "given": [
              "Paul"
            ],
            "prefix": [
              "Dr"
            ]
          }
        ],
        "telecom": [
          {
            "system": "phone",
            "value": "01136323200",
            "use": "work"
          }
        ],
        "gender": "male"
      }
    },
    {
      "fullUrl": "Organization/25d5ad55-5657-4cbe-9b8b-2e993f19286e",
      "resource": {
        "resourceType": "Organization",
        "id": "25d5ad55-5657-4cbe-9b8b-2e993f19286e",
        "identifier": [
          {
            "system": "https://fhir.nhs.uk/Id/ods-organization-code",
            "value": "ABC123"
          }
        ],
        "name": "ANYTOWN ROYAL INFIRMARY",
        "telecom": [
          {
            "system": "phone",
            "value": "01134875516"
          }
        ],
        "address": [
          {
            "line": [
              "1 High Street"
            ],
            "city": "ANYTOWN",
            "postalCode": "LS1 9AM"
          }
        ]
      }
    },
    {
      "fullUrl": "Patient/40b4f492-48ed-4181-97a7-452adc31580c",
      "resource": {
        "resourceType": "Patient",
        "id": "40b4f492-48ed-4181-97a7-452adc31580c",
        "identifier": [
          {
            "system": "https://fhir.nhs.uk/Id/nhs-number",
            "value": "9378954319"
          }
        ],
        "name": [
          {
            "use": "official",
            "text": "Tim Tiny",
            "family": "Tiny",
            "given": [
              "Tim"
            ]
          }
        ],
        "gender": "male",
        "birthDate": "1966-02-04",
        "address": [
          {
            "use": "home",
            "line": [
              "14 Sunny Mews"
            ],
            "city": "ANYTOWN",
            "district": "WEST YORKSHIRE",
            "postalCode": "LS17 4NK"
          }
        ]
      }
    }
  ]
}