{
    "resourceType": "Bundle",
    "id": "0693d89c-3018-4eb0-9f9d-0d0e085d148c",
    "meta": {
        "versionId": "3dbb2740-d3f1-419f-9957-8050be68ea36",
        "lastUpdated": "2020-12-23T14:39:37.969+00:00"
    },
    "type": "transaction",
    "entry": [
        {
            "fullUrl": "urn:uuid:8b8bea2a-b2de-4442-9ecc-d1f8e2e1f42d",
            "request": {
                "method": "POST",
                "url": "Observation"
            },
            "resource": {
                "resourceType": "Observation",
                "id": "8b8bea2a-b2de-4442-9ecc-d1f8e2e1f42d",
                "identifier": [
                    {
                        "system": "https://tools.ietf.org/html/rfc4122",
                        "value": "ea45c120-504f-40f2-a79f-cb8cd3dd1307"
                    }
                ],
                "status": "final",
                "category": [
                    {
                        "coding": [
                            {
                                "system": "http://terminology.hl7.org/CodeSystem/observation-category",
                                "code": "survey",
                                "display": "Survey"
                            }
                        ]
                    }
                ],
                "code": {
                    "coding": [
                        {
                            "system": "http://snomed.info/sct",
                            "code": "1104051000000101",
                            "display": "Royal College of Physicians NEWS2 (National Early Warning Score 2) total score"
                        }
                    ]
                },
                "subject": {
                    "identifier": {
                        "system": "https://fhir.nhs.uk/Id/nhs-number",
                        "value": "9378954317"
                    }
                },
                "effectiveDateTime": "2018-10-04T14:17:59+01:00",
                "performer": [
                    {
                        "identifier": {
                            "system": "https://fhir.hl7.org.uk/Id/gmc-number",
                            "value": "C3266131"
                        }
                    },
                    {
                        "identifier": {
                            "system": "https://fhir.nhs.uk/Id/ods-organization-code",
                            "value": "RR8"
                        }
                    }
                ],
                "valueQuantity": {
                    "value": 6,
                    "unit": "ScoreOf",
                    "system": "http://unitsofmeasure.org",
                    "code": "{ScoreOf}"
                },
                "derivedFrom": [
                    {
                        "reference": "urn:uuid:dbf6ec86-ebd7-4490-8586-596328519ed2"
                    },
                    {
                        "reference": "urn:uuid:f0d26102-3a50-4993-9203-6089b625fc2f"
                    },
                    {
                        "reference": "urn:uuid:1a1273f4-dd78-4bb4-bb98-ed6456caa2a2"
                    },
                    {
                        "reference": "urn:uuid:c756fd32-f04e-45a9-b02f-2461ed53c736"
                    },
                    {
                        "reference": "urn:uuid:5a1625e8-938e-4c19-9d3e-a235bfb4b37d"
                    },
                    {
                        "reference": "urn:uuid:638c6821-eb51-4f1b-b8c0-5269d1df9b7c"
                    },
                    {
                        "reference": "urn:uuid:fc6c6fa5-d8e8-4634-a19a-985325077cb2"
                    }
                ]
            }
        },
        {
            "fullUrl": "urn:uuid:dbf6ec86-ebd7-4490-8586-596328519ed2",
            "request": {
                "method": "POST",
                "url": "Observation"
            },
            "resource": {
                "resourceType": "Observation",
                "id": "dbf6ec86-ebd7-4490-8586-596328519ed2",
                "identifier": [
                    {
                        "system": "https://tools.ietf.org/html/rfc4122",
                        "value": "2936d52c-5ae3-434b-8978-bfa7563ed31a"
                    }
                ],
                "status": "final",
                "category": [
                    {
                        "coding": [
                            {
                                "system": "http://terminology.hl7.org/CodeSystem/observation-category",
                                "code": "vital-signs",
                                "display": "Vital Signs"
                            }
                        ]
                    }
                ],
                "code": {
                    "coding": [
                        {
                            "system": "http://snomed.info/sct",
                            "code": "86290005",
                            "display": "Respiratory rate"
                        },
                        {
                            "system": "http://loinc.org",
                            "code": "9279-1",
                            "display": "Respiratory Rate"
                        }
                    ]
                },
                "subject": {
                    "identifier": {
                        "system": "https://fhir.nhs.uk/Id/nhs-number",
                        "value": "9378954317"
                    }
                },
                "effectiveDateTime": "2018-10-04T14:17:59+01:00",
                "performer": [
                    {
                        "identifier": {
                            "system": "https://fhir.hl7.org.uk/Id/gmc-number",
                            "value": "C3266131"
                        }
                    },
                    {
                        "identifier": {
                            "system": "https://fhir.nhs.uk/Id/ods-organization-code",
                            "value": "RR8"
                        }
                    }
                ],
                "valueQuantity": {
                    "value": 21,
                    "unit": "Breaths / minute",
                    "system": "http://unitsofmeasure.org",
                    "code": "{Breaths}/min"
                }
            }
        },
        {
            "fullUrl": "urn:uuid:f0d26102-3a50-4993-9203-6089b625fc2f",
            "request": {
                "method": "POST",
                "url": "Observation"
            },
            "resource": {
                "resourceType": "Observation",
                "id": "f0d26102-3a50-4993-9203-6089b625fc2f",
                "identifier": [
                    {
                        "system": "https://tools.ietf.org/html/rfc4122",
                        "value": "99a2f708-66aa-4e7f-a09c-5742600f376d"
                    }
                ],
                "status": "final",
                "category": [
                    {
                        "coding": [
                            {
                                "system": "http://terminology.hl7.org/CodeSystem/observation-category",
                                "code": "vital-signs",
                                "display": "Vital Signs"
                            }
                        ]
                    }
                ],
                "code": {
                    "coding": [
                        {
                            "system": "http://snomed.info/sct",
                            "code": "364075005",
                            "display": "Heart rate"
                        },
                        {
                            "system": "http://snomed.info/sct",
                            "code": "78564009",
                            "display": "Pulse rate",
                            "userSelected": true
                        },
                        {
                            "system": "http://loinc.org",
                            "code": "8867-4",
                            "display": "Heart rate"
                        }
                    ]
                },
                "subject": {
                    "identifier": {
                        "system": "https://fhir.nhs.uk/Id/nhs-number",
                        "value": "9378954317"
                    }
                },
                "effectiveDateTime": "2018-10-04T14:17:59+01:00",
                "performer": [
                    {
                        "identifier": {
                            "system": "https://fhir.hl7.org.uk/Id/gmc-number",
                            "value": "C3266131"
                        }
                    },
                    {
                        "identifier": {
                            "system": "https://fhir.nhs.uk/Id/ods-organization-code",
                            "value": "RR8"
                        }
                    }
                ],
                "valueQuantity": {
                    "value": 95,
                    "unit": "heart beats per minute",
                    "system": "http://unitsofmeasure.org",
                    "code": "{beats}/min"
                }
            }
        },
        {
            "fullUrl": "urn:uuid:1a1273f4-dd78-4bb4-bb98-ed6456caa2a2",
            "request": {
                "method": "POST",
                "url": "Observation"
            },
            "resource": {
                "resourceType": "Observation",
                "id": "1a1273f4-dd78-4bb4-bb98-ed6456caa2a2",
                "identifier": [
                    {
                        "system": "https://tools.ietf.org/html/rfc4122",
                        "value": "de2273eb-ecb0-4205-862e-6a43b8f71ec1"
                    }
                ],
                "status": "final",
                "category": [
                    {
                        "coding": [
                            {
                                "system": "http://terminology.hl7.org/CodeSystem/observation-category",
                                "code": "vital-signs",
                                "display": "Vital Signs"
                            }
                        ]
                    }
                ],
                "code": {
                    "coding": [
                        {
                            "system": "http://snomed.info/sct",
                            "code": "103228002",
                            "display": "Hemoglobin saturation with oxygen"
                        },
                        {
                            "system": "http://loinc.org",
                            "code": "2708-6",
                            "display": "Oxygen saturation in Arterial blood"
                        }
                    ]
                },
                "subject": {
                    "identifier": {
                        "system": "https://fhir.nhs.uk/Id/nhs-number",
                        "value": "9378954317"
                    }
                },
                "effectiveDateTime": "2018-10-04T14:17:59+01:00",
                "performer": [
                    {
                        "identifier": {
                            "system": "https://fhir.hl7.org.uk/Id/gmc-number",
                            "value": "C3266131"
                        }
                    },
                    {
                        "identifier": {
                            "system": "https://fhir.nhs.uk/Id/ods-organization-code",
                            "value": "RR8"
                        }
                    }
                ],
                "valueQuantity": {
                    "value": 93,
                    "unit": "percent",
                    "system": "http://unitsofmeasure.org",
                    "code": "%"
                }
            }
        },
        {
            "fullUrl": "urn:uuid:c756fd32-f04e-45a9-b02f-2461ed53c736",
            "request": {
                "method": "POST",
                "url": "Observation"
            },
            "resource": {
                "resourceType": "Observation",
                "id": "c756fd32-f04e-45a9-b02f-2461ed53c736",
                "identifier": [
                    {
                        "system": "https://tools.ietf.org/html/rfc4122",
                        "value": "ce084616-c540-4032-aeb3-ef35347600c5"
                    }
                ],
                "status": "final",
                "code": {
                    "coding": [
                        {
                            "system": "http://snomed.info/sct",
                            "code": "78064003",
                            "display": "Breathing"
                        }
                    ]
                },
                "valueCodeableConcept": {
                    "coding": [
                        {
                            "system": "http://snomed.info/sct",
                            "code": "722742002",
                            "display": "Breathing room air"
                        }
                    ]
                },
                "subject": {
                    "identifier": {
                        "system": "https://fhir.nhs.uk/Id/nhs-number",
                        "value": "9378954317"
                    }
                },
                "effectiveDateTime": "2018-10-04T14:17:59+01:00",
                "performer": [
                    {
                        "identifier": {
                            "system": "https://fhir.hl7.org.uk/Id/gmc-number",
                            "value": "C3266131"
                        }
                    },
                    {
                        "identifier": {
                            "system": "https://fhir.nhs.uk/Id/ods-organization-code",
                            "value": "RR8"
                        }
                    }
                ]
            }
        },
        {
            "fullUrl": "urn:uuid:5a1625e8-938e-4c19-9d3e-a235bfb4b37d",
            "request": {
                "method": "POST",
                "url": "Observation"
            },
            "resource": {
                "resourceType": "Observation",
                "id": "5a1625e8-938e-4c19-9d3e-a235bfb4b37d",
                "identifier": [
                    {
                        "system": "https://tools.ietf.org/html/rfc4122",
                        "value": "cff7c586-5a41-403b-a276-fc2cce24bf3b"
                    }
                ],
                "status": "final",
                "category": [
                    {
                        "coding": [
                            {
                                "system": "http://terminology.hl7.org/CodeSystem/observation-category",
                                "code": "vital-signs",
                                "display": "Vital Signs"
                            }
                        ]
                    }
                ],
                "code": {
                    "coding": [
                        {
                            "system": "http://snomed.info/sct",
                            "code": "276885007",
                            "display": "Core body temperature"
                        },
                        {
                            "system": "http://loinc.org",
                            "code": "8310-5",
                            "display": "Body temperature"
                        }
                    ]
                },
                "subject": {
                    "identifier": {
                        "system": "https://fhir.nhs.uk/Id/nhs-number",
                        "value": "9378954317"
                    }
                },
                "effectiveDateTime": "2018-10-04T14:17:59+01:00",
                "performer": [
                    {
                        "identifier": {
                            "system": "https://fhir.hl7.org.uk/Id/gmc-number",
                            "value": "C3266131"
                        }
                    },
                    {
                        "identifier": {
                            "system": "https://fhir.nhs.uk/Id/ods-organization-code",
                            "value": "RR8"
                        }
                    }
                ],
                "valueQuantity": {
                    "value": 37.5,
                    "unit": "degree Celsius",
                    "system": "http://unitsofmeasure.org",
                    "code": "Cel"
                }
            }
        },
        {
            "fullUrl": "urn:uuid:638c6821-eb51-4f1b-b8c0-5269d1df9b7c",
            "request": {
                "method": "POST",
                "url": "Observation"
            },
            "resource": {
                "resourceType": "Observation",
                "id": "638c6821-eb51-4f1b-b8c0-5269d1df9b7c",
                "identifier": [
                    {
                        "system": "https://tools.ietf.org/html/rfc4122",
                        "value": "8b77f37d-eb6b-427c-9cd5-b1a2166b8fdb"
                    }
                ],
                "status": "final",
                "category": [
                    {
                        "coding": [
                            {
                                "system": "http://terminology.hl7.org/CodeSystem/observation-category",
                                "code": "vital-signs",
                                "display": "Vital Signs"
                            }
                        ]
                    }
                ],
                "code": {
                    "coding": [
                        {
                            "system": "http://snomed.info/sct",
                            "code": "75367002",
                            "display": "Blood pressure"
                        },
                        {
                            "system": "http://loinc.org",
                            "code": "85354-9",
                            "display": "Blood pressure panel with all children optional"
                        }
                    ]
                },
                "subject": {
                    "identifier": {
                        "system": "https://fhir.nhs.uk/Id/nhs-number",
                        "value": "9378954317"
                    }
                },
                "effectiveDateTime": "2018-10-04T14:17:59+01:00",
                "performer": [
                    {
                        "identifier": {
                            "system": "https://fhir.hl7.org.uk/Id/gmc-number",
                            "value": "C3266131"
                        }
                    },
                    {
                        "identifier": {
                            "system": "https://fhir.nhs.uk/Id/ods-organization-code",
                            "value": "RR8"
                        }
                    }
                ],
                "bodySite": {
                    "coding": [
                        {
                            "system": "http://snomed.info/sct",
                            "code": "368209003",
                            "display": "Right upper arm structure"
                        }
                    ]
                },
                "component": [
                    {
                        "code": {
                            "coding": [
                                {
                                    "system": "http://snomed.info/sct",
                                    "code": "72313002",
                                    "display": "Systolic arterial pressure"
                                }
                            ]
                        },
                        "valueQuantity": {
                            "value": 120,
                            "unit": "millimeter of mercury",
                            "system": "http://unitsofmeasure.org",
                            "code": "mm[Hg]"
                        }
                    },
                    {
                        "code": {
                            "coding": [
                                {
                                    "system": "http://snomed.info/sct",
                                    "code": "1091811000000102",
                                    "display": "Diastolic arterial pressure"
                                }
                            ]
                        },
                        "valueQuantity": {
                            "value": 60,
                            "unit": "millimeter of mercury",
                            "system": "http://unitsofmeasure.org",
                            "code": "mm[Hg]"
                        }
                    }
                ]
            }
        },
        {
            "fullUrl": "urn:uuid:fc6c6fa5-d8e8-4634-a19a-985325077cb2",
            "request": {
                "method": "POST",
                "url": "Observation"
            },
            "resource": {
                "resourceType": "Observation",
                "id": "fc6c6fa5-d8e8-4634-a19a-985325077cb2",
                "identifier": [
                    {
                        "system": "https://tools.ietf.org/html/rfc4122",
                        "value": "2d16bf3f-4369-446c-8ceb-a0e103296208"
                    }
                ],
                "status": "final",
                "category": [
                    {
                        "coding": [
                            {
                                "system": "http://terminology.hl7.org/CodeSystem/observation-category",
                                "code": "survey",
                                "display": "Survey"
                            }
                        ]
                    }
                ],
                "code": {
                    "coding": [
                        {
                            "system": "http://snomed.info/sct",
                            "code": "1104441000000107",
                            "display": "ACVPU (Alert Confusion Voice Pain Unresponsive) scale score"
                        }
                    ]
                },
                "subject": {
                    "identifier": {
                        "system": "https://fhir.nhs.uk/Id/nhs-number",
                        "value": "9378954317"
                    }
                },
                "effectiveDateTime": "2018-10-04T14:17:59+01:00",
                "performer": [
                    {
                        "identifier": {
                            "system": "https://fhir.hl7.org.uk/Id/gmc-number",
                            "value": "C3266131"
                        }
                    },
                    {
                        "identifier": {
                            "system": "https://fhir.nhs.uk/Id/ods-organization-code",
                            "value": "RR8"
                        }
                    }
                ],
                "valueCodeableConcept": {
                    "coding": [
                        {
                            "system": "http://snomed.info/sct",
                            "code": "248234008",
                            "display": "Mentally alert"
                        }
                    ]
                }
            }
        }
    ]
}