<?xml version="1.0" encoding="UTF-8"?>
<Bundle xmlns="http://hl7.org/fhir">
	<id value="b06dba26-1ccb-46a0-a9e0-4a4e45654a2d"/>
	<meta>
		<versionId value="3dbb2740-d3f1-419f-9957-8050be68ea36"/>
		<lastUpdated value="2020-12-23T14:39:37.969+00:00"/>
		<!--<profile value="https://fhir.hl7.org.uk/StructureDefinition/UKCore-Bundle"/>-->
	</meta>
	<type value="collection"/>
	<entry>
		<fullUrl value="Observation/8b8bea2a-b2de-4442-9ecc-d1f8e2e1f42d"/>
		<resource>
			<Observation xmlns="http://hl7.org/fhir">
				<id value="8b8bea2a-b2de-4442-9ecc-d1f8e2e1f42d"/>
				<!--<meta>
					<profile value="https://fhir.hl7.org.uk/StructureDefinition/UKCore-Observation"/>
				</meta>-->
				<identifier>
					<system value="https://tools.ietf.org/html/rfc4122"/>
					<value value="ea45c120-504f-40f2-a79f-cb8cd3dd1307"/>
				</identifier>
				<status value="final"/>
				<category>
					<coding>
						<system value="http://terminology.hl7.org/CodeSystem/observation-category"/>
						<code value="survey"/>
						<display value="Survey"/>
					</coding>
				</category>
				<code>
					<coding>
						<system value="http://snomed.info/sct"/>
						<code value="1104051000000101"/>
						<display value="Royal College of Physicians NEWS2 (National Early Warning Score 2) total score"/>
					</coding>
				</code>
				<subject>
					<reference value="Patient/30d3de6f-e800-47fa-b610-b02c7c8e9d57"/>
				</subject>
				<effectiveDateTime value="2018-10-04T14:17:59+01:00"/>
				<performer>
					<reference value="Practitioner/627be677-3eb2-4db4-9570-5669fd8c92f5"/>
				</performer>
				<performer>
					<reference value="Organization/cdaea3db-8b40-41dc-9834-b42503e12382"/>
				</performer>
				<valueQuantity>
					<value value="6"/>
					<system value="http://unitsofmeasure.org"/>
					<code value="{ScoreOf}"/>
				</valueQuantity>
				<derivedFrom>
					<reference value="Observation/84665258-b376-4223-b309-e6716d1303f6"/>
				</derivedFrom>
				<derivedFrom>
					<reference value="Observation/e273ecfb-4f8f-43ec-aa34-66de58d705fd"/>
				</derivedFrom>
				<derivedFrom>
					<reference value="Observation/c1abbdf5-44fb-4a3d-9027-fc7e62bebabb"/>
				</derivedFrom>
				<derivedFrom>
					<reference value="Observation/64bf263f-475c-4fce-a5d6-1274ed0e22f7"/>
				</derivedFrom>
				<derivedFrom>
					<reference value="Observation/764d6298-b444-4489-9882-1cf68d969330"/>
				</derivedFrom>
				<derivedFrom>
					<reference value="Observation/1e4fe18a-e4fb-4e6d-9246-472839623088"/>
				</derivedFrom>
				<derivedFrom>
					<reference value="Observation/9639d641-974d-40a9-8a4e-f99ea0d4c3b8"/>
				</derivedFrom>
			</Observation>
		</resource>
	</entry>
	<entry>
		<fullUrl value="Observation/9639d641-974d-40a9-8a4e-f99ea0d4c3b8"/>
		<resource>
			<Observation xmlns="http://hl7.org/fhir">
				<id value="9639d641-974d-40a9-8a4e-f99ea0d4c3b8"/>
				<!--Respiratory Rate-->
				<!--<meta>
					<profile value="https://fhir.hl7.org.uk/StructureDefinition/UKCore-VitalSigns-Observation"/>
				</meta>-->
				<identifier>
					<system value="https://tools.ietf.org/html/rfc4122"/>
					<value value="15135902-f182-4b73-a53d-f621670194be"/>
				</identifier>
				<status value="final"/>
				<category>
					<coding>
						<system value="http://terminology.hl7.org/CodeSystem/observation-category"/>
						<code value="vital-signs"/>
						<display value="Vital Signs"/>
					</coding>
				</category>
				<code>
					<coding>
						<system value="http://snomed.info/sct"/>
						<code value="86290005"/>
						<display value="Respiratory rate"/>
					</coding>
					<coding>
						<system value="http://loinc.org"/>
						<code value="9279-1"/>
						<display value="Respiratory Rate"/>
					</coding>
				</code>
				<subject>
					<reference value="Patient/30d3de6f-e800-47fa-b610-b02c7c8e9d57"/>
				</subject>
				<effectiveDateTime value="2018-10-04T14:17:59+01:00"/>
				<performer>
					<reference value="Practitioner/627be677-3eb2-4db4-9570-5669fd8c92f5"/>
				</performer>
				<performer>
					<reference value="Organization/cdaea3db-8b40-41dc-9834-b42503e12382"/>
				</performer>
				<valueQuantity>
					<value value="21"/>
					<unit value="/min"/>
					<system value="http://unitsofmeasure.org"/>
				</valueQuantity>
			</Observation>
		</resource>
	</entry>
	<entry>
		<fullUrl value="Observation/1e4fe18a-e4fb-4e6d-9246-472839623088"/>
		<resource>
			<Observation xmlns="http://hl7.org/fhir">
				<id value="1e4fe18a-e4fb-4e6d-9246-472839623088"/>
				<!--Heart Rate-->
				<!--<meta>
					<profile value="https://fhir.hl7.org.uk/StructureDefinition/UKCore-VitalSigns-Observation"/>
				</meta>-->
				<identifier>
					<system value="https://tools.ietf.org/html/rfc4122"/>
					<value value="4116b813-04a5-45cd-921e-d2440c279691"/>
				</identifier>
				<status value="final"/>
				<category>
					<coding>
						<system value="http://terminology.hl7.org/CodeSystem/observation-category"/>
						<code value="vital-signs"/>
						<display value="Vital Signs"/>
					</coding>
				</category>
				<code>
					<coding>
						<system value="http://snomed.info/sct"/>
						<code value="364075005"/>
						<display value="Heart rate"/>
					</coding>
					<coding>
						<system value="http://snomed.info/sct"/>
						<code value="78564009"/>
						<display value="Pulse rate"/>
						<userSelected value="true"/>
					</coding>
					<coding>
						<system value="http://loinc.org"/>
						<code value="8867-4"/>
						<display value="Heart rate"/>
					</coding>
				</code>
				<subject>
					<reference value="Patient/30d3de6f-e800-47fa-b610-b02c7c8e9d57"/>
				</subject>
				<effectiveDateTime value="2018-10-04T14:17:59+01:00"/>
				<performer>
					<reference value="Practitioner/627be677-3eb2-4db4-9570-5669fd8c92f5"/>
				</performer>
				<performer>
					<reference value="Organization/cdaea3db-8b40-41dc-9834-b42503e12382"/>
				</performer>
				<valueQuantity>
					<value value="95"/>
					<unit value="/min"/>
					<system value="http://unitsofmeasure.org"/>
				</valueQuantity>
			</Observation>
		</resource>
	</entry>
	<entry>
		<fullUrl value="Observation/764d6298-b444-4489-9882-1cf68d969330"/>
		<resource>
			<Observation xmlns="http://hl7.org/fhir">
				<id value="764d6298-b444-4489-9882-1cf68d969330"/>
				<!--Oxygen Saturation-->
				<!--<meta>
					<profile value="https://fhir.hl7.org.uk/StructureDefinition/UKCore-VitalSigns-Observation"/>
				</meta>-->
				<identifier>
					<system value="https://tools.ietf.org/html/rfc4122"/>
					<value value="6a678f52-5537-405e-bfc3-44d581e2eeeb"/>
				</identifier>
				<status value="final"/>
				<category>
					<coding>
						<system value="http://terminology.hl7.org/CodeSystem/observation-category"/>
						<code value="vital-signs"/>
						<display value="Vital Signs"/>
					</coding>
				</category>
				<code>
					<coding>
						<system value="http://snomed.info/sct"/>
						<code value="103228002"/>
						<display value="Hemoglobin saturation with oxygen"/>
					</coding>
					<coding>
						<system value="http://loinc.org"/>
						<code value="2708-6"/>
						<display value="Oxygen saturation in Arterial blood"/>
					</coding>
				</code>
				<subject>
					<reference value="Patient/30d3de6f-e800-47fa-b610-b02c7c8e9d57"/>
				</subject>
				<effectiveDateTime value="2018-10-04T14:17:59+01:00"/>
				<performer>
					<reference value="Practitioner/627be677-3eb2-4db4-9570-5669fd8c92f5"/>
				</performer>
				<performer>
					<reference value="Organization/cdaea3db-8b40-41dc-9834-b42503e12382"/>
				</performer>
				<valueQuantity>
					<value value="93"/>
					<unit value="%"/>
					<system value="http://unitsofmeasure.org"/>
				</valueQuantity>
			</Observation>
		</resource>
	</entry>
	<entry>
		<fullUrl value="Observation/64bf263f-475c-4fce-a5d6-1274ed0e22f7"/>
		<resource>
			<Observation xmlns="http://hl7.org/fhir">
				<id value="64bf263f-475c-4fce-a5d6-1274ed0e22f7"/>
				<!--Inspired Oxygen-->
				<!--<meta>
					<profile value="https://fhir.hl7.org.uk/StructureDefinition/UKCore-VitalSigns-Observation"/>
				</meta>-->
				<identifier>
					<system value="https://tools.ietf.org/html/rfc4122"/>
					<value value="5e98f67b-b9b0-449b-b9f4-19356a7e6dde"/>
				</identifier>
				<status value="final"/>
				<code>
					<coding>
						<system value="http://snomed.info/sct"/>
						<code value="722742002"/>
						<display value="Breathing room air"/>
					</coding>
				</code>
				<subject>
					<reference value="Patient/30d3de6f-e800-47fa-b610-b02c7c8e9d57"/>
				</subject>
				<effectiveDateTime value="2018-10-04T14:17:59+01:00"/>
				<performer>
					<reference value="Practitioner/627be677-3eb2-4db4-9570-5669fd8c92f5"/>
				</performer>
				<performer>
					<reference value="Organization/cdaea3db-8b40-41dc-9834-b42503e12382"/>
				</performer>
			</Observation>
		</resource>
	</entry>
	<entry>
		<fullUrl value="Observation/c1abbdf5-44fb-4a3d-9027-fc7e62bebabb"/>
		<resource>
			<Observation xmlns="http://hl7.org/fhir">
				<id value="c1abbdf5-44fb-4a3d-9027-fc7e62bebabb"/>
				<!--Body Temperature-->
				<!--<meta>
					<profile value="https://fhir.hl7.org.uk/StructureDefinition/UKCore-VitalSigns-Observation"/>
				</meta>-->
				<identifier>
					<system value="https://tools.ietf.org/html/rfc4122"/>
					<value value="7a03591c-a917-4f38-828c-bacaa8f4db49"/>
				</identifier>
				<status value="final"/>
				<category>
					<coding>
						<system value="http://terminology.hl7.org/CodeSystem/observation-category"/>
						<code value="vital-signs"/>
						<display value="Vital Signs"/>
					</coding>
				</category>
				<code>
					<coding>
						<system value="http://snomed.info/sct"/>
						<code value="276885007"/>
						<display value="Core body temperature"/>
					</coding>
					<coding>
						<system value="http://loinc.org"/>
						<code value="8310-5"/>
						<display value="Body temperature"/>
					</coding>
				</code>
				<subject>
					<reference value="Patient/30d3de6f-e800-47fa-b610-b02c7c8e9d57"/>
				</subject>
				<effectiveDateTime value="2018-10-04T14:17:59+01:00"/>
				<performer>
					<reference value="Practitioner/627be677-3eb2-4db4-9570-5669fd8c92f5"/>
				</performer>
				<performer>
					<reference value="Organization/cdaea3db-8b40-41dc-9834-b42503e12382"/>
				</performer>
				<valueQuantity>
					<value value="37.5"/>
					<unit value="Cel"/>
					<system value="http://unitsofmeasure.org"/>
				</valueQuantity>
			</Observation>
		</resource>
	</entry>
	<entry>
		<fullUrl value="Observation/e273ecfb-4f8f-43ec-aa34-66de58d705fd"/>
		<resource>
			<Observation xmlns="http://hl7.org/fhir">
				<id value="e273ecfb-4f8f-43ec-aa34-66de58d705fd"/>
				<!--Blood Pressure-->
				<!--<meta>
					<profile value="https://fhir.hl7.org.uk/StructureDefinition/UKCore-VitalSigns-Observation"/>
				</meta>-->
				<identifier>
					<system value="https://tools.ietf.org/html/rfc4122"/>
					<value value="4920f0d7-1dd8-4556-b3ed-354074aa4c83"/>
				</identifier>
				<status value="final"/>
				<category>
					<coding>
						<system value="http://terminology.hl7.org/CodeSystem/observation-category"/>
						<code value="vital-signs"/>
						<display value="Vital Signs"/>
					</coding>
				</category>
				<code>
					<coding>
						<system value="http://snomed.info/sct"/>
						<code value="75367002"/>
						<display value="Blood pressure"/>
					</coding>
					<coding>
						<system value="http://loinc.org"/>
						<code value="85354-9"/>
						<display value="Blood pressure panel with all children optional"/>
					</coding>
				</code>
				<subject>
					<reference value="Patient/30d3de6f-e800-47fa-b610-b02c7c8e9d57"/>
				</subject>
				<effectiveDateTime value="2018-10-04T14:17:59+01:00"/>
				<performer>
					<reference value="Practitioner/627be677-3eb2-4db4-9570-5669fd8c92f5"/>
				</performer>
				<performer>
					<reference value="Organization/cdaea3db-8b40-41dc-9834-b42503e12382"/>
				</performer>
				<bodySite>
					<coding>
						<system value="http://snomed.info/sct"/>
						<code value="368209003"/>
						<display value="Right upper arm structure"/>
					</coding>
				</bodySite>
				<component>
					<code>
						<coding>
							<system value="http://snomed.info/sct"/>
							<code value="72313002"/>
							<display value="Systolic arterial pressure"/>
						</coding>
						<coding>
							<system value="http://loinc.org"/>
							<code value="8480-6"/>
							<display value="Systolic blood pressure"/>
						</coding>
					</code>
					<valueQuantity>
						<value value="120"/>
						<unit value="mm[Hg]"/>
						<system value="http://unitsofmeasure.org"/>
					</valueQuantity>
				</component>
				<component>
					<code>
						<coding>
							<system value="http://snomed.info/sct"/>
							<code value="1091811000000102"/>
							<display value="Diastolic arterial pressure"/>
						</coding>
						<coding>
							<system value="http://loinc.org"/>
							<code value="8462-4"/>
							<display value="Diastolic blood pressure"/>
						</coding>
					</code>
					<valueQuantity>
						<value value="60"/>
						<unit value="mm[Hg]"/>
						<system value="http://unitsofmeasure.org"/>
					</valueQuantity>
				</component>
			</Observation>
		</resource>
	</entry>
	<entry>
		<fullUrl value="Observation/84665258-b376-4223-b309-e6716d1303f6"/>
		<resource>
			<Observation xmlns="http://hl7.org/fhir">
				<id value="84665258-b376-4223-b309-e6716d1303f6"/>
				<!--ACVPU-->
				<!--<meta>
					<profile value="https://fhir.hl7.org.uk/StructureDefinition/UKCore-VitalSigns-Observation"/>
				</meta>-->
				<identifier>
					<system value="https://tools.ietf.org/html/rfc4122"/>
					<value value="8050e0ee-0c5b-4405-b9a1-e8420306b35f"/>
				</identifier>
				<status value="final"/>
				<category>
					<coding>
						<system value="http://terminology.hl7.org/CodeSystem/observation-category"/>
						<code value="survey"/>
						<display value="Survey"/>
					</coding>
				</category>
				<code>
					<coding>
						<system value="http://snomed.info/sct"/>
						<code value="1104441000000107"/>
						<display value="ACVPU (Alert Confusion Voice Pain Unresponsive) scale score"/>
					</coding>
				</code>
				<subject>
					<reference value="Patient/30d3de6f-e800-47fa-b610-b02c7c8e9d57"/>
				</subject>
				<effectiveDateTime value="2018-10-04T14:17:59+01:00"/>
				<performer>
					<reference value="Practitioner/627be677-3eb2-4db4-9570-5669fd8c92f5"/>
				</performer>
				<performer>
					<reference value="Organization/cdaea3db-8b40-41dc-9834-b42503e12382"/>
				</performer>
				<valueCodeableConcept>
					<coding>
						<system value="http://snomed.info/sct"/>
						<code value="248234008"/>
						<display value="Mentally alert"/>
					</coding>
				</valueCodeableConcept>
			</Observation>
		</resource>
	</entry>
</Bundle>
