{
    "resourceType": "Bundle",
    "type": "transaction",
    "entry": [
      {
        "fullUrl": "urn:uuid:ce884574-bf09-423e-acc1-4e00b1be3c39",
        "resource": {
          "resourceType": "Patient",
          "identifier": [
            {
              "system": "https://cardiff.nhs.uk/Id/mrn",
              "value": "403281375"
            },
            {
              "system": "https://fhir.nhs.uk/Id/nhs-number",
              "value": "5189214567"
            }
          ],
          "name": [
            {
              "family": "Bloggs",
              "given": [
                "Joe"
              ],
              "prefix": [
                "Mr"
              ]
            }
          ],
          "birthDate": "2001-03-28",
          "address": [
            {
              "city": "Baglan",
              "district": "Neath port talbot",
              "postalCode": "SA12 7BR"
            }
          ]
        },
        "request": {
          "method": "POST",
          "url": "Patient"
        }
      },
      {
        "fullUrl": "urn:uuid:f85b2b6f-9f6a-4af4-bb9a-e58809d4aade",
        "resource": {
          "resourceType": "Encounter",
          "identifier": [
            {
              "value": "914694928301"
            }
          ],
          "status": "in-progress",
          "class": {
            "system": "http://terminology.hl7.org/CodeSystem/v3-ActCode",
            "code": "AMB",
            "display": "ambulatory"
          },
          "subject": {
            "identifier": {
              "system": "https://fhir.nhs.uk/Id/nhs-number",
              "value": "5189214567"
            }
          }
        },
        "request": {
          "method": "POST",
          "url": "Encounter"
        }
      },
      {
        "fullUrl": "urn:uuid:b0c03672-a262-4332-8246-0710aef89446",
        "resource": {
          "resourceType": "ServiceRequest",
          "identifier": [
            {
              "value": "914694928301"
            }
          ],
          "status": "active",
          "intent": "order",
          "priority": "stat",
          "code": {
            "coding": [
              {
                "code": "B3051",
                "display": "HbA1c (IFCC traceable)"
              }
            ]
          },
          "orderDetail": [
            {
              "coding": [
                {
                  "code": "B3051",
                  "display": "HbA1c (IFCC traceable)"
                }
              ]
            },
            {
              "coding": [
                {
                  "code": "B0001",
                  "display": "Full blood count"
                }
              ]
            }
          ],
          "subject": {
            "reference": "urn:uuid:ce884574-bf09-423e-acc1-4e00b1be3c39"
          },
          "occurrencePeriod": {
            "start": "2018-03-09T14:00:00+00:00",
            "end": "2018-03-09T15:00:00+00:00"
          },
          "requester": {
            "display": "Dr Andar Gunneberg"
          }
        },
        "request": {
          "method": "POST",
          "url": "ServiceRequest"
        }
      },
      {
        "fullUrl": "urn:uuid:ce4ea077-e2ed-4b72-ae75-0154c32c4591",
        "resource": {
          "resourceType": "DiagnosticReport",
          "identifier": [
            {
              "value": "914694928301-1"
            }
          ],
          "basedOn": [
            {
              "reference": "urn:uuid:b0c03672-a262-4332-8246-0710aef89446",
              "type": "ServiceRequest",
              "identifier": {
                "value": "914694928301"
              }
            }
          ],
          "status": "final",
          "category": [
            {
              "coding": [
                {
                  "system": "http://terminology.hl7.org/CodeSystem/v2-0074",
                  "code": "LAB"
                }
              ]
            }
          ],
          "code": {
            "coding": [
              {
                "code": "B3051",
                "display": "HbA1c (IFCC traceable)"
              }
            ]
          },
          "subject": {
            "reference": "urn:uuid:ce884574-bf09-423e-acc1-4e00b1be3c39"
          },
          "encounter": {
            "reference": "urn:uuid:f85b2b6f-9f6a-4af4-bb9a-e58809d4aade"
          },
          "effectiveDateTime": "2018-03-09T15:00:00+00:00",
          "performer": [
            {
              "display": "ABM: Angharad Shore"
            }
          ],
          "result": [
            {
              "reference": "urn:uuid:85fa7c27-c7c3-4c38-9a91-b1ecdfb6c89f"
            }
          ],
          "conclusion": "For monitoring known diabetic patients, please follow NICE guidelines. If not a known diabetic and the patient is asymptomatic, a second confirmatory sample is required within 2 weeks (WEDS Guidance). HbA1c is unreliable for diagnostic and monitoring purposes in the context of several conditions, including some haemoglobinopathies, abnormal haemoglobin levels, chronic renal failure, recent transfusion, pregnancy, or alcoholism./r"
        },
        "request": {
          "method": "POST",
          "url": "DiagnosticReport"
        }
      },
      {
        "fullUrl": "urn:uuid:85fa7c27-c7c3-4c38-9a91-b1ecdfb6c89f",
        "resource": {
          "resourceType": "Observation",
          "identifier": [
            {
              "value": "914694928301-1-1"
            }
          ],
          "status": "final",
          "category": [
            {
              "coding": [
                {
                  "system": "http://terminology.hl7.org/CodeSystem/observation-category",
                  "code": "laboratory",
                  "display": "Laboratory"
                }
              ]
            }
          ],
          "code": {
            "coding": [
              {
                "code": "B3553",
                "display": "HbA1c (IFCC traceable)"
              }
            ]
          },
          "subject": {
            "reference": "urn:uuid:ce884574-bf09-423e-acc1-4e00b1be3c39"
          },
          "encounter": {
            "reference": "urn:uuid:f85b2b6f-9f6a-4af4-bb9a-e58809d4aade"
          },
          "effectiveDateTime": "2018-03-09T15:00:00+00:00",
          "valueQuantity": {
            "value": 49,
            "code": "mmol/mol"
          },
          "interpretation": [
            {
              "coding": [
                {
                  "system": "http://terminology.hl7.org/CodeSystem/v3-ObservationInterpretation",
                  "code": "H",
                  "display": "High"
                }
              ]
            }
          ],
          "referenceRange": [
            {
              "text": "<48"
            }
          ]
        },
        "request": {
          "method": "POST",
          "url": "Observation"
        }
      },
      {
        "fullUrl": "urn:uuid:33cd8b68-927f-4480-b390-2f024d5abf3d",
        "resource": {
          "resourceType": "Specimen",
          "accessionIdentifier": {
            "value": "9146949283"
          },
          "type": {
            "coding": [
              {
                "code": "BLOO",
                "display": "Blood"
              }
            ]
          },
          "subject": {
            "reference": "urn:uuid:ce884574-bf09-423e-acc1-4e00b1be3c39"
          },
          "collection": {
            "collectedDateTime": "2018-03-09T14:00:00+00:00"
          }
        },
        "request": {
          "method": "POST",
          "url": "Specimen"
        }
      },
      {
        "fullUrl": "urn:uuid:d8c4b34b-f32e-45b9-9655-b35ad71e0e6a",
        "resource": {
          "resourceType": "DiagnosticReport",
          "identifier": [
            {
              "value": "914694928301-2"
            }
          ],
          "basedOn": [
            {
              "reference": "urn:uuid:b0c03672-a262-4332-8246-0710aef89446",
              "type": "ServiceRequest",
              "identifier": {
                "value": "914694928301"
              }
            }
          ],
          "status": "final",
          "category": [
            {
              "coding": [
                {
                  "system": "http://terminology.hl7.org/CodeSystem/v2-0074",
                  "code": "LAB"
                }
              ]
            }
          ],
          "code": {
            "coding": [
              {
                "code": "B0001",
                "display": "Full blood count"
              }
            ]
          },
          "subject": {
            "reference": "urn:uuid:ce884574-bf09-423e-acc1-4e00b1be3c39"
          },
          "encounter": {
            "reference": "urn:uuid:f85b2b6f-9f6a-4af4-bb9a-e58809d4aade"
          },
          "effectiveDateTime": "2018-03-09T15:00:00+00:00",
          "performer": [
            {
              "display": "ABM: Carl Owen"
            }
          ],
          "specimen": [
            {
              "reference": "urn:uuid:33cd8b68-927f-4480-b390-2f024d5abf3d"
            }
          ],
          "result": [
            {
              "reference": "urn:uuid:c074017d-b2cf-4a25-87d9-ca8bacd6fc8d"
            },
            {
              "reference": "urn:uuid:b6d4ec69-62eb-469a-87f5-867ababb6883"
            },
            {
              "reference": "urn:uuid:b42cc266-0b11-43ce-b069-2aeb0cd6161f"
            },
            {
              "reference": "urn:uuid:5e022049-469c-46c1-9623-7a22b88d35a7"
            },
            {
              "reference": "urn:uuid:f0a66ade-969f-4690-a7ef-639547beaeb2"
            },
            {
              "reference": "urn:uuid:bc011b9f-b587-4a58-8bc6-01dd993f5866"
            },
            {
              "reference": "urn:uuid:71ada9db-4d55-4167-98ca-86687001615a"
            }
          ]
        },
        "request": {
          "method": "POST",
          "url": "DiagnosticReport"
        }
      },
      {
        "fullUrl": "urn:uuid:c074017d-b2cf-4a25-87d9-ca8bacd6fc8d",
        "resource": {
          "resourceType": "Observation",
          "identifier": [
            {
              "value": "914694928301-2-1"
            }
          ],
          "status": "final",
          "category": [
            {
              "coding": [
                {
                  "system": "http://terminology.hl7.org/CodeSystem/observation-category",
                  "code": "laboratory",
                  "display": "Laboratory"
                }
              ]
            }
          ],
          "code": {
            "coding": [
              {
                "code": "B0300",
                "display": "White blood cell (WBC) count"
              }
            ]
          },
          "subject": {
            "reference": "urn:uuid:ce884574-bf09-423e-acc1-4e00b1be3c39"
          },
          "encounter": {
            "reference": "urn:uuid:f85b2b6f-9f6a-4af4-bb9a-e58809d4aade"
          },
          "effectiveDateTime": "2018-03-09T15:00:00+00:00",
          "valueQuantity": {
            "value": 3.5,
            "code": "x10^9/L"
          },
          "interpretation": [
            {
              "coding": [
                {
                  "system": "http://terminology.hl7.org/CodeSystem/v3-ObservationInterpretation",
                  "code": "L",
                  "display": "Low"
                }
              ]
            }
          ],
          "referenceRange": [
            {
              "text": "4.0-11.0"
            }
          ]
        },
        "request": {
          "method": "POST",
          "url": "Observation"
        }
      },
      {
        "fullUrl": "urn:uuid:b6d4ec69-62eb-469a-87f5-867ababb6883",
        "resource": {
          "resourceType": "Observation",
          "identifier": [
            {
              "value": "914694928301-2-2"
            }
          ],
          "status": "final",
          "category": [
            {
              "coding": [
                {
                  "system": "http://terminology.hl7.org/CodeSystem/observation-category",
                  "code": "laboratory",
                  "display": "Laboratory"
                }
              ]
            }
          ],
          "code": {
            "coding": [
              {
                "code": "B0307",
                "display": "Haemoglobin (Hb)"
              }
            ]
          },
          "subject": {
            "reference": "urn:uuid:ce884574-bf09-423e-acc1-4e00b1be3c39"
          },
          "encounter": {
            "reference": "urn:uuid:f85b2b6f-9f6a-4af4-bb9a-e58809d4aade"
          },
          "effectiveDateTime": "2018-03-09T15:00:00+00:00",
          "valueQuantity": {
            "value": 200,
            "code": "g/L"
          },
          "interpretation": [
            {
              "coding": [
                {
                  "system": "http://terminology.hl7.org/CodeSystem/v3-ObservationInterpretation",
                  "code": "H",
                  "display": "High"
                }
              ]
            }
          ],
          "referenceRange": [
            {
              "text": "130-180"
            }
          ]
        },
        "request": {
          "method": "POST",
          "url": "Observation"
        }
      },
      {
        "fullUrl": "urn:uuid:b42cc266-0b11-43ce-b069-2aeb0cd6161f",
        "resource": {
          "resourceType": "Observation",
          "identifier": [
            {
              "value": "914694928301-2-3"
            }
          ],
          "status": "final",
          "category": [
            {
              "coding": [
                {
                  "system": "http://terminology.hl7.org/CodeSystem/observation-category",
                  "code": "laboratory",
                  "display": "Laboratory"
                }
              ]
            }
          ],
          "code": {
            "coding": [
              {
                "code": "B0314",
                "display": "Platelet (PLT) count"
              }
            ]
          },
          "subject": {
            "reference": "urn:uuid:ce884574-bf09-423e-acc1-4e00b1be3c39"
          },
          "encounter": {
            "reference": "urn:uuid:f85b2b6f-9f6a-4af4-bb9a-e58809d4aade"
          },
          "effectiveDateTime": "2018-03-09T15:00:00+00:00",
          "valueQuantity": {
            "value": 500,
            "code": "x10^9/L"
          },
          "interpretation": [
            {
              "coding": [
                {
                  "system": "http://terminology.hl7.org/CodeSystem/v3-ObservationInterpretation",
                  "code": "H",
                  "display": "High"
                }
              ]
            }
          ],
          "referenceRange": [
            {
              "text": "150-400"
            }
          ]
        },
        "request": {
          "method": "POST",
          "url": "Observation"
        }
      },
      {
        "fullUrl": "urn:uuid:5e022049-469c-46c1-9623-7a22b88d35a7",
        "resource": {
          "resourceType": "Observation",
          "identifier": [
            {
              "value": "914694928301-2-4"
            }
          ],
          "status": "final",
          "category": [
            {
              "coding": [
                {
                  "system": "http://terminology.hl7.org/CodeSystem/observation-category",
                  "code": "laboratory",
                  "display": "Laboratory"
                }
              ]
            }
          ],
          "code": {
            "coding": [
              {
                "code": "B0306",
                "display": "Red blood cell (RBC) count"
              }
            ]
          },
          "subject": {
            "reference": "urn:uuid:ce884574-bf09-423e-acc1-4e00b1be3c39"
          },
          "encounter": {
            "reference": "urn:uuid:f85b2b6f-9f6a-4af4-bb9a-e58809d4aade"
          },
          "effectiveDateTime": "2018-03-09T15:00:00+00:00",
          "valueQuantity": {
            "value": 6,
            "code": "x10^12/L"
          },
          "interpretation": [
            {
              "coding": [
                {
                  "system": "http://terminology.hl7.org/CodeSystem/v3-ObservationInterpretation",
                  "code": "N",
                  "display": "Normal"
                }
              ]
            }
          ],
          "referenceRange": [
            {
              "text": "4.50-6.00"
            }
          ]
        },
        "request": {
          "method": "POST",
          "url": "Observation"
        }
      },
      {
        "fullUrl": "urn:uuid:f0a66ade-969f-4690-a7ef-639547beaeb2",
        "resource": {
          "resourceType": "Observation",
          "identifier": [
            {
              "value": "914694928301-2-5"
            }
          ],
          "status": "final",
          "category": [
            {
              "coding": [
                {
                  "system": "http://terminology.hl7.org/CodeSystem/observation-category",
                  "code": "laboratory",
                  "display": "Laboratory"
                }
              ]
            }
          ],
          "code": {
            "coding": [
              {
                "code": "B0308",
                "display": "Haematocrit (Hct)"
              }
            ]
          },
          "subject": {
            "reference": "urn:uuid:ce884574-bf09-423e-acc1-4e00b1be3c39"
          },
          "encounter": {
            "reference": "urn:uuid:f85b2b6f-9f6a-4af4-bb9a-e58809d4aade"
          },
          "effectiveDateTime": "2018-03-09T15:00:00+00:00",
          "valueQuantity": {
            "value": 0.6,
            "code": "L/L"
          },
          "interpretation": [
            {
              "coding": [
                {
                  "system": "http://terminology.hl7.org/CodeSystem/v3-ObservationInterpretation",
                  "code": "H",
                  "display": "High"
                }
              ]
            }
          ],
          "referenceRange": [
            {
              "text": "0.40-0.52"
            }
          ]
        },
        "request": {
          "method": "POST",
          "url": "Observation"
        }
      },
      {
        "fullUrl": "urn:uuid:bc011b9f-b587-4a58-8bc6-01dd993f5866",
        "resource": {
          "resourceType": "Observation",
          "identifier": [
            {
              "value": "914694928301-2-6"
            }
          ],
          "status": "final",
          "category": [
            {
              "coding": [
                {
                  "system": "http://terminology.hl7.org/CodeSystem/observation-category",
                  "code": "laboratory",
                  "display": "Laboratory"
                }
              ]
            }
          ],
          "code": {
            "coding": [
              {
                "code": "B0309",
                "display": "Mean cell volume (MCV)"
              }
            ]
          },
          "subject": {
            "reference": "urn:uuid:ce884574-bf09-423e-acc1-4e00b1be3c39"
          },
          "encounter": {
            "reference": "urn:uuid:f85b2b6f-9f6a-4af4-bb9a-e58809d4aade"
          },
          "effectiveDateTime": "2018-03-09T15:00:00+00:00",
          "valueQuantity": {
            "value": 120,
            "code": "fL"
          },
          "interpretation": [
            {
              "coding": [
                {
                  "system": "http://terminology.hl7.org/CodeSystem/v3-ObservationInterpretation",
                  "code": "H",
                  "display": "High"
                }
              ]
            }
          ],
          "referenceRange": [
            {
              "text": "80-100"
            }
          ]
        },
        "request": {
          "method": "POST",
          "url": "Observation"
        }
      },
      {
        "fullUrl": "urn:uuid:71ada9db-4d55-4167-98ca-86687001615a",
        "resource": {
          "resourceType": "Observation",
          "identifier": [
            {
              "value": "914694928301-2-7"
            }
          ],
          "status": "final",
          "category": [
            {
              "coding": [
                {
                  "system": "http://terminology.hl7.org/CodeSystem/observation-category",
                  "code": "laboratory",
                  "display": "Laboratory"
                }
              ]
            }
          ],
          "code": {
            "coding": [
              {
                "code": "B0310",
                "display": "Mean cell haemoglobin (MCH)"
              }
            ]
          },
          "subject": {
            "reference": "urn:uuid:ce884574-bf09-423e-acc1-4e00b1be3c39"
          },
          "encounter": {
            "reference": "urn:uuid:f85b2b6f-9f6a-4af4-bb9a-e58809d4aade"
          },
          "effectiveDateTime": "2018-03-09T15:00:00+00:00",
          "valueQuantity": {
            "value": 34,
            "code": "pg"
          },
          "interpretation": [
            {
              "coding": [
                {
                  "system": "http://terminology.hl7.org/CodeSystem/v3-ObservationInterpretation",
                  "code": "H",
                  "display": "High"
                }
              ]
            }
          ],
          "referenceRange": [
            {
              "text": "27.0-33.0"
            }
          ]
        },
        "request": {
          "method": "POST",
          "url": "Observation"
        }
      }
    ]
  }