{
    "resourceType": "Bundle",
    "type": "transaction",
    "entry": [
      {
        "fullUrl": "urn:uuid:29a52692-0e95-47b6-807c-e3776eb18ad3",
        "resource": {
          "resourceType": "Patient",
          "identifier": [
            {
              "system": "https://fhir.example.org/NISTMPI",
              "value": "PATID1234"
            }
          ],
          "name": [
            {
              "family": "Jones",
              "given": [
                "William"
              ]
            }
          ],
          "birthDate": "1961-06-27"
        },
        "request": {
          "method": "POST",
          "url": "Patient"
        }
      },
      {
        "fullUrl": "urn:uuid:3f86c8c0-7f77-4a1a-b32d-f73438c921fe",
        "resource": {
          "resourceType": "ServiceRequest",
          "identifier": [
            {
              "value": "ORD777888"
            },
            {
              "value": "R-220713"
            }
          ],
          "status": "active",
          "intent": "order",
          "code": {
            "coding": [
              {
                "code": "24331-1",
                "display": "Lipid 1996 panel in Serum or Plasma"
              }
            ]
          },
          "subject": {
            "reference": "urn:uuid:29a52692-0e95-47b6-807c-e3776eb18ad3"
          },
          "requester": {
            "identifier": {
              "value": "5742200012"
            },
            "display": "Nicholas Radon"
          }
        },
        "request": {
          "method": "POST",
          "url": "ServiceRequest"
        }
      },
      {
        "fullUrl": "urn:uuid:4744698e-a2db-4c73-9583-b62a140be3fc",
        "resource": {
          "resourceType": "Specimen",
          "identifier": [
            {
              "value": "S2015-777888"
            }
          ],
          "accessionIdentifier": {
            "value": "S-220713-1"
          },
          "type": {
            "coding": [
              {
                "code": "119297000",
                "display": "BLD"
              }
            ]
          },
          "subject": {
            "reference": "urn:uuid:29a52692-0e95-47b6-807c-e3776eb18ad3"
          },
          "collection": {
            "collectedDateTime": "2015-09-25T00:00:00+00:00"
          }
        },
        "request": {
          "method": "POST",
          "url": "Specimen"
        }
      },
      {
        "fullUrl": "urn:uuid:8631e00d-ddcb-4462-bbab-206b2a575b72",
        "resource": {
          "resourceType": "DiagnosticReport",
          "extension": [
            {
              "url": "http://hl7.org/fhir/5.0/StructureDefinition/extension-DiagnosticReport.note",
              "valueAnnotation": {
                "text": "Patient was fasting prior to the procedure."
              }
            }
          ],
          "identifier": [
            {
              "value": "ORD777888-1"
            }
          ],
          "basedOn": [
            {
              "reference": "urn:uuid:3f86c8c0-7f77-4a1a-b32d-f73438c921fe",
              "type": "ServiceRequest",
              "identifier": {
                "value": "ORD777888"
              }
            },
            {
              "type": "ServiceRequest",
              "identifier": {
                "value": "R-220713"
              }
            }
          ],
          "status": "final",
          "code": {
            "coding": [
              {
                "code": "24331-1",
                "display": "Lipid 1996 panel in Serum or Plasma"
              }
            ]
          },
          "subject": {
            "reference": "urn:uuid:29a52692-0e95-47b6-807c-e3776eb18ad3"
          },
          "effectiveDateTime": "2015-09-25T00:00:00+00:00",
          "specimen": [
            {
              "reference": "urn:uuid:4744698e-a2db-4c73-9583-b62a140be3fc"
            }
          ],
          "result": [
            {
              "reference": "urn:uuid:0f9a1dd9-fdeb-4b9e-8d14-c860b080d962"
            },
            {
              "reference": "urn:uuid:1dbbd1ae-a536-4f88-91f5-7a0df19cb7a0"
            },
            {
              "reference": "urn:uuid:cac91898-9305-4acb-801b-13996ced4739"
            },
            {
              "reference": "urn:uuid:a290907d-3d34-4ada-b3ea-6c32f2032eaa"
            }
          ]
        },
        "request": {
          "method": "POST",
          "url": "DiagnosticReport"
        }
      },
      {
        "fullUrl": "urn:uuid:0f9a1dd9-fdeb-4b9e-8d14-c860b080d962",
        "resource": {
          "resourceType": "Observation",
          "identifier": [
            {
              "value": "ORD777888-1-1"
            }
          ],
          "status": "final",
          "code": {
            "coding": [
              {
                "system": "http://loinc.org",
                "code": "2093-3",
                "display": "Cholesterol [Mass/volume] in Serum or Plasma"
              }
            ]
          },
          "subject": {
            "reference": "urn:uuid:29a52692-0e95-47b6-807c-e3776eb18ad3"
          },
          "effectiveDateTime": "2015-09-25T00:00:00+00:00",
          "performer": [
            {
              "display": "Century Hospital"
            },
            {
              "identifier": {
                "value": "5432178916"
              },
              "display": "Dr. Phil Knowsalot"
            }
          ],
          "valueQuantity": {
            "value": 196,
            "unit": "milligrams per deciliter",
            "system": "http://unitsofmeasure.org",
            "code": "mg/dL"
          },
          "interpretation": [
            {
              "coding": [
                {
                  "system": "http://terminology.hl7.org/CodeSystem/v3-ObservationInterpretation",
                  "code": "N",
                  "display": "Normal"
                }
              ]
            }
          ],
          "referenceRange": [
            {
              "text": "Recommended: <200; Moderate Risk: 200-239 ; High Risk: >240"
            }
          ]
        },
        "request": {
          "method": "POST",
          "url": "Observation"
        }
      },
      {
        "fullUrl": "urn:uuid:1dbbd1ae-a536-4f88-91f5-7a0df19cb7a0",
        "resource": {
          "resourceType": "Observation",
          "identifier": [
            {
              "value": "ORD777888-1-2"
            }
          ],
          "status": "final",
          "code": {
            "coding": [
              {
                "system": "http://loinc.org",
                "code": "2571-8",
                "display": "Triglyceride [Mass/volume] in Serum or Plasma"
              }
            ]
          },
          "subject": {
            "reference": "urn:uuid:29a52692-0e95-47b6-807c-e3776eb18ad3"
          },
          "effectiveDateTime": "2015-09-25T00:00:00+00:00",
          "performer": [
            {
              "display": "Century Hospital"
            },
            {
              "identifier": {
                "value": "5432178916"
              },
              "display": "Dr. Phil Knowsalot"
            }
          ],
          "valueQuantity": {
            "value": 100,
            "unit": "milligrams per deciliter",
            "system": "http://unitsofmeasure.org",
            "code": "mg/dL"
          },
          "interpretation": [
            {
              "coding": [
                {
                  "system": "http://terminology.hl7.org/CodeSystem/v3-ObservationInterpretation",
                  "code": "N",
                  "display": "Normal"
                }
              ]
            }
          ],
          "referenceRange": [
            {
              "text": "40 to 160"
            }
          ]
        },
        "request": {
          "method": "POST",
          "url": "Observation"
        }
      },
      {
        "fullUrl": "urn:uuid:cac91898-9305-4acb-801b-13996ced4739",
        "resource": {
          "resourceType": "Observation",
          "identifier": [
            {
              "value": "ORD777888-1-3"
            }
          ],
          "status": "final",
          "code": {
            "coding": [
              {
                "system": "http://loinc.org",
                "code": "2085-9",
                "display": "Cholesterol in HDL [Mass/volume] in Serum or Plasma"
              }
            ]
          },
          "subject": {
            "reference": "urn:uuid:29a52692-0e95-47b6-807c-e3776eb18ad3"
          },
          "effectiveDateTime": "2015-09-25T00:00:00+00:00",
          "performer": [
            {
              "display": "Century Hospital"
            },
            {
              "identifier": {
                "value": "5432178916"
              },
              "display": "Dr. Phil Knowsalot"
            }
          ],
          "valueQuantity": {
            "value": 60,
            "unit": "milligrams per deciliter",
            "system": "http://unitsofmeasure.org",
            "code": "mg/dL"
          },
          "interpretation": [
            {
              "coding": [
                {
                  "system": "http://terminology.hl7.org/CodeSystem/v3-ObservationInterpretation",
                  "code": "N",
                  "display": "Normal"
                }
              ]
            }
          ],
          "referenceRange": [
            {
              "text": "29 to 72"
            }
          ]
        },
        "request": {
          "method": "POST",
          "url": "Observation"
        }
      },
      {
        "fullUrl": "urn:uuid:a290907d-3d34-4ada-b3ea-6c32f2032eaa",
        "resource": {
          "resourceType": "Observation",
          "identifier": [
            {
              "value": "ORD777888-1-4"
            }
          ],
          "status": "final",
          "code": {
            "coding": [
              {
                "system": "http://loinc.org",
                "code": "2089-1",
                "display": "Cholesterol in LDL [Mass/volume] in Serum or Plasma"
              }
            ]
          },
          "subject": {
            "reference": "urn:uuid:29a52692-0e95-47b6-807c-e3776eb18ad3"
          },
          "effectiveDateTime": "2015-09-25T00:00:00+00:00",
          "performer": [
            {
              "display": "Century Hospital"
            },
            {
              "identifier": {
                "value": "5432178916"
              },
              "display": "Dr. Phil Knowsalot"
            }
          ],
          "valueQuantity": {
            "value": 116,
            "unit": "milligrams per deciliter",
            "system": "http://unitsofmeasure.org",
            "code": "mg/dL"
          },
          "interpretation": [
            {
              "coding": [
                {
                  "system": "http://terminology.hl7.org/CodeSystem/v3-ObservationInterpretation",
                  "code": "N",
                  "display": "Normal"
                }
              ]
            }
          ],
          "referenceRange": [
            {
              "text": "Recommended: <130; Moderate Risk: 130-159; High Risk: >160"
            }
          ]
        },
        "request": {
          "method": "POST",
          "url": "Observation"
        }
      }
    ]
  }