{
    "resourceType": "Bundle",
    "id": "950831dd-2603-442d-9a07-e4b6cd2ac544",
    "identifier": {
        "system": "https://tools.ietf.org/html/rfc4122",
        "value": "950831dd-2603-442d-9a07-e4b6cd2ac544"
    },
    "type": "message",
    "timestamp": "2021-01-07T15:13:00+00:00",
    "entry": [
        {
            "fullUrl": "urn:uuid:ea7221b8-3cc0-4b11-bc95-585b056b5428",
            "resource": {
                "resourceType": "MessageHeader",
                "source": {
                    "endpoint": "urn:nhs-uk:addressing:ods:X2601"
                },
                "eventCoding": {
                    "system": "https://fhir.nhs.uk/CodeSystem/message-event",
                    "code": "notification",
                    "display": "Subscription Event Notification"
                },
                "sender": {
                    "identifier": {
                        "system": "https://fhir.nhs.uk/Id/ods-organization-code",
                        "value": "X2601"
                    },
                    "display": "NHS Digital Spine"
                },
                "focus": [
                    {
                        "reference": "urn:uuid:8faea997-df7d-4e71-85af-4acd1cd47ca8"
                    }
                ]
            },
            "request": {
                "method": "GET",
                "url": "Subscription/123/$status"
            },
            "response": {
                "status": "200"
            }
        },
        {
            "fullUrl": "urn:uuid:8faea997-df7d-4e71-85af-4acd1cd47ca8",
            "resource": {
                "resourceType": "Bundle",
                "id": "8faea997-df7d-4e71-85af-4acd1cd47ca8",
                "identifier": {
                    "system": "https://tools.ietf.org/html/rfc4122",
                    "value": "8faea997-df7d-4e71-85af-4acd1cd47ca8"
                },
                "type": "history",
                "timestamp": "2021-01-07T15:13:00+00:00",
                "entry": [
                    {
                        "fullUrl": "urn:uuid:c6ca3f0a-2470-407d-b0f4-c3dc70ab153b",
                        "resource": {
                            "resourceType": "Parameters",
                            "meta": {
                                "profile": "https://fhir.nhs.uk/StructureDefinition/England-Parameters-SubscriptionStatus"
                            },
                            "parameter": [
                                {
                                    "name": "status",
                                    "valueCode": "active"
                                },
                                {
                                    "name": "notificationEvent",
                                    "part": [
                                        {
                                            "name": "eventNumber",
                                            "valueInteger": "1"
                                        },
                                        {
                                            "name": "timestamp",
                                            "valueInstant": "2022-01-07T15:06:00+00:00"
                                        },
                                        {
                                            "name": "focus",
                                            "valueReference": {
                                                "reference": "http://example.org/FHIR/R4B/Encounter/2"
                                            }
                                        }
                                    ]
                                },
                                {
                                    "name": "subscription",
                                    "valueReference": {
                                        "reference": "https://spine.nhs.uk/Subscription/5c4c8f04-1c36-4b8d-94e1-4e4b08e873d8"
                                    }
                                },
                                {
                                    "name": "topic",
                                    "valueCanonical": "https://fhir.nhs.uk/SubscriptionTopic/referral-sent"
                                }
                            ]
                        }
                    },
                    {
                        "fullUrl": "https://example.org/FHIR/R4/Encounter/2",
                        "resource": {
                            "resourceType": "Encounter",
                            "id": "2",
                            "meta": {
                                "versionId": "1",
                                "lastUpdated": "2019-08-07T10:49:22Z"
                            },
                            "status": "in-progress",
                            "class": {
                                "system": "http://terminology.hl7.org/CodeSystem/v3-ActCode",
                                "code": "VR",
                                "display": "virtual"
                            },
                            "subject": {
                                "reference": "Patient/123"
                            }
                        },
                        "request": {
                            "method": "PUT",
                            "url": "Encounter/2"
                        },
                        "response": {
                            "status": "201"
                        }
                    }
                ]
            }
        }
    ]
}