{
  "resourceType": "Bundle",
  "id": "8faea997-df7d-4e71-85af-4acd1cd47ca8",
  "identifier": {
    "system": "https://tools.ietf.org/html/rfc4122",
    "value": "8faea997-df7d-4e71-85af-4acd1cd47ca8"
  },
  "type": "history",
  "timestamp": "2021-01-07T15:13:00+00:00",
  "entry": [
    {
      "fullUrl": "urn:uuid:c6ca3f0a-2470-407d-b0f4-c3dc70ab153b",
      "resource": {
        "resourceType": "Parameters",
        "meta": {
          "profile": [
            "http://hl7.org/fhir/uv/subscriptions-backport/StructureDefinition/backport-subscription-status-r4"
          ]
        },
        "parameter": [
          {
            "name": "subscription",
            "valueReference": {
              "reference": "https://example.org/fhir/Subscription/admission"
            }
          },
          {
            "name": "topic",
            "valueCanonical": "http://hl7.org/SubscriptionTopic/admission"
          },
          {
            "name": "status",
            "valueCode": "active"
          },
          {
            "name": "type",
            "valueCode": "event-notification"
          },
          {
            "name": "events-since-subscription-start",
            "valueString": "2"
          },
          {
            "name": "notification-event",
            "part": [
              {
                "name": "event-number",
                "valueString": "1"
              },
              {
                "name": "timestamp",
                "valueInstant": "2022-01-07T15:06:00+00:00"
              },
              {
                "name": "focus",
                "valueReference": {
                  "reference": "https://example.org/FHIR/R4/Encounter/2"
                }
              },
              {
                "name": "additional-context",
                "valueReference": {
                  "reference": "https://example.org/fhir/Patient/1599eb66-431a-447c-a3de-6897fe9ae9a1"
                }
              }
            ]
          }
        ]
      },
      "request": {
        "method": "GET",
        "url": "https://example.org/fhir/Subscription/admission/$status"
      },
      "response": {
        "status": "200"
      }
    },
    {
      "fullUrl": "https://example.org/FHIR/R4/Encounter/2",
      "resource": {
        "resourceType": "Encounter",
        "id": "2",
        "meta": {
          "versionId": "1",
          "lastUpdated": "2019-08-07T10:49:22Z"
        },
        "identifier": [
          {
            "system": "https://fhir.yorkhospitals.nhs.uk/Id/visitId",
            "value": "11554"
          }
        ],
        "status": "in-progress",
        "class": {
          "system": "http://terminology.hl7.org/CodeSystem/v3-ActCode",
          "code": "VR",
          "display": "virtual"
        },
        "subject": {
          "reference": "https://example.org/fhir/Patient/1599eb66-431a-447c-a3de-6897fe9ae9a1"
        }
      },
      "request": {
        "method": "PUT",
        "url": "Encounter/2"
      },
      "response": {
        "status": "201"
      }
    },
    {
      "fullUrl": "https://example.org/fhir/Patient/1599eb66-431a-447c-a3de-6897fe9ae9a1",
      "resource": {
        "resourceType": "Patient",
        "id": "1599eb66-431a-447c-a3de-6897fe9ae9a1",
        "text": {
          "status": "generated",
          "div": "<div xmlns=\"http://www.w3.org/1999/xhtml\"><p><b>Generated Narrative: Patient</b><a name=\"1599eb66-431a-447c-a3de-6897fe9ae9a1\"> </a></p><div style=\"display: inline-block; background-color: #d9e0e7; padding: 6px; margin: 4px; border: 1px solid #8da1b4; border-radius: 5px; line-height: 60%\"><p style=\"margin-bottom: 0px\">Resource Patient &quot;1599eb66-431a-447c-a3de-6897fe9ae9a1&quot; </p></div><p><b>active</b>: true</p><p><b>name</b>: Example Patient</p></div>"
        },
        "active": true,
        "name": [
          {
            "use": "usual",
            "text": "Example Patient",
            "family": "Patient",
            "given": [
              "Example"
            ]
          }
        ]
      },
      "request": {
        "method": "GET",
        "url": "Patient/1599eb66-431a-447c-a3de-6897fe9ae9a1"
      },
      "response": {
        "status": "200"
      }
    }
  ]
}