{
    "resourceType": "Bundle",
    "id": "path-R4-example-bundle-HbA1c-report",
    "meta": {
        "lastUpdated": "2022-01-30T12:48:00+00:00"
    },
    "identifier": {
        "system": "https://tools.ietf.org/html/rfc4122",
        "value": "82a908e2-f8fe-4ea4-a651-9758588304fd"
    },
    "type": "transaction",
    "entry":  [
        {
            "fullUrl": "urn:uuid:8a6d85b8-9837-4fed-a257-4cf207988338",
            "resource": {
                "resourceType": "Organization",
                "id": "8a6d85b8-9837-4fed-a257-4cf207988338",
                "identifier":  [
                    {
                        "system": "https://fhir.nhs.uk/Id/ods-organization-code",
                        "value": "Y8J7D"
                    }
                ],
                "name": "TD008362 PATH LAB 001",
                "address":  [
                    {
                        "line":  [
                            "PATHOLOGY LAB",
                            "7-8 WELLINGTON PLACE"
                        ],
                        "city": "LEEDS",
                        "district": "WEST YORKSHIRE",
                        "postalCode": "LS1 4AP"
                    }
                ]
            },
            "request": {
                "method": "POST",
                "url": "Organization"
            }
        },
        {
            "fullUrl": "urn:uuid:3c43b5b3-06d6-445f-ae9a-48d5f05df434",
            "resource": {
                "resourceType": "Organization",
                "id": "3c43b5b3-06d6-445f-ae9a-48d5f05df434",
                "identifier":  [
                    {
                        "system": "https://fhir.nhs.uk/Id/ods-organization-code",
                        "value": "B82033"
                    }
                ],
                "name": "PICKERING MEDICAL PRACTICE",
                "address":  [
                    {
                        "line":  [
                            "SOUTHGATE"
                        ],
                        "city": "PICKERING",
                        "district": "NORTH YORKSHIRE",
                        "postalCode": "YO18 8BL"
                    }
                ]
            },
            "request": {
                "method": "POST",
                "url": "Organization"
            }
        },
        {
            "fullUrl": "urn:uuid:9a835acf-d715-4d84-8dcf-a8435f6417fe",
            "resource": {
                "resourceType": "Practitioner",
                "id": "9a835acf-d715-4d84-8dcf-a8435f6417fe",
                "identifier":  [
                    {
                        "system": "https://fhir.nhs.uk/Id/sds-user-id",
                        "value": "TBC"
                    }
                ],
                "name":  [
                    {
                        "use": "official",
                        "family": "GASKELL",
                        "given":  [
                            "Gale"
                        ],
                        "prefix":  [
                            "Dr"
                        ]
                    }
                ]
            },
            "request": {
                "method": "POST",
                "url": "Practitioner"
            }
        },
        {
            "fullUrl": "urn:uuid:ab87a3f8-1d37-44a9-804e-5e962598a6e4",
            "resource": {
                "resourceType": "Patient",
                "id": "ab87a3f8-1d37-44a9-804e-5e962598a6e4",
                "identifier":  [
                    {
                        "system": "https://fhir.nhs.uk/Id/nhs-number",
                        "value": "9727710638"
                    }
                ],
                "name":  [
                    {
                        "use": "official",
                        "family": "WELSH",
                        "given":  [
                            "Joel"
                        ]
                    }
                ],
                "gender": "male",
                "birthDate": "1972-08-23",
                "address":  [
                    {
                        "line":  [
                            "ACONBURY",
                            "LARPOOL DRIVE"
                        ],
                        "city": "WHITBY",
                        "postalCode": "YO22 4ND"
                    }
                ]
            },
            "request": {
                "method": "POST",
                "url": "Patient"
            }
        },
        {
            "fullUrl": "urn:uuid:1c38d507-9ad7-4b49-ba91-7da204842cac",
            "resource": {
                "resourceType": "ServiceRequest",
                "id": "1c38d507-9ad7-4b49-ba91-7da204842cac",
                "identifier":  [
                    {
                        "system": "http://B82033-pickeringmedicalpractice.com/labrequest",
                        "value": "REQ-20220129-000241"
                    }
                ],
                "status": "active",
                "intent": "order",
                "code": {
                    "coding":  [
                        {
                            "system": "http://snomed.info/sct",
                            "code": "43396009",
                            "display": "Haemoglobin A1c measurement"
                        }
                    ]
                },
                "subject": {
                    "reference": "urn:uuid:ab87a3f8-1d37-44a9-804e-5e962598a6e4",
                    "display": "WELSH, Joel"
                },
                "authoredOn": "2022-01-29T10:24:00+00:00",
                "requester": {
                    "reference": "urn:uuid:9a835acf-d715-4d84-8dcf-a8435f6417fe",
                    "display": "GASKELL, Dr Gale"
                },
                "performer":  [
                    {
                        "reference": "urn:uuid:8a6d85b8-9837-4fed-a257-4cf207988338",
                        "display": "TD008362 PATH LAB 001"
                    }
                ],
                "specimen":  [
                    {
                        "reference": "urn:uuid:bab0eaec-1ec5-4598-b660-90bb38a1030d"
                    }
                ]
            },
            "request": {
                "method": "POST",
                "url": "ServiceRequest"
            }
        },
        {
            "fullUrl": "urn:uuid:35d46ca1-f253-4c97-b7ee-fb5fccdf6c20",
            "resource": {
                "resourceType": "DiagnosticReport",
                "id": "35d46ca1-f253-4c97-b7ee-fb5fccdf6c20",

                "identifier":  [
                    {
                        "system": "http://Y8J7D-pathlab001.com/report",
                        "value": "REP-20220130-007843"
                    }
                ],
                "basedOn":  [
                    {
                        "reference": "urn:uuid:1c38d507-9ad7-4b49-ba91-7da204842cac",
                        "type": "ServiceRequest"
                    }
                ],
                "status": "final",
                "category":  [
                    {
                        "coding":  [
                            {
                                "system": "http://terminology.hl7.org/CodeSystem/v2-0074",
                                "code": "LAB",
                                "display": "Laboratory"
                            }
                        ]
                    }
                ],
                "code": {
                    "coding":  [
                        {
                            "system": "http://snomed.info/sct",
                            "code": "721981007",
                            "display": "Diagnostic studies report"
                        }
                    ]
                },
                "subject": {
                    "reference": "urn:uuid:ab87a3f8-1d37-44a9-804e-5e962598a6e4",
                    "display": "WELSH, Joel"
                },
                "issued": "2022-01-30T12:48:00+00:00",
                "performer":  [
                    {
                        "reference": "urn:uuid:8a6d85b8-9837-4fed-a257-4cf207988338",
                        "display": "TD008362 PATH LAB 001"
                    }
                ],
                "specimen":  [
                    {
                        "reference": "urn:uuid:bab0eaec-1ec5-4598-b660-90bb38a1030d"
                    }
                ],
                "result":  [
                    {
                        "reference": "urn:uuid:ad717ae8-cb35-4d66-ba51-e22a76b1d158"
                    }
                ]
            },
            "request": {
                "method": "POST",
                "url": "DiagnosticReport"
            }
        },
        {
            "fullUrl": "urn:uuid:bab0eaec-1ec5-4598-b660-90bb38a1030d",
            "resource": {
                "resourceType": "Specimen",
                "id": "bab0eaec-1ec5-4598-b660-90bb38a1030d",
                "identifier":  [
                    {
                        "system": "http://B82033-pickeringmedicalpractice.com/specimen",
                        "value": "SPC-REQ-20220129-000362"
                    }
                ],
                "accessionIdentifier": {
                    "system": "http://Y8J7D-pathlab001.com/specimen",
                    "value": "SPC-LAB-20220129-008927"
                },
                "status": "available",
                "type": {
                    "coding":  [
                        {
                            "system": "http://snomed.info/sct",
                            "code": "122555007",
                            "display": "Venous blood specimen"
                        }
                    ]
                },
                "subject": {
                    "reference": "urn:uuid:ab87a3f8-1d37-44a9-804e-5e962598a6e4",
                    "display": "WELSH, Joel"
                },
                "receivedTime": "2022-01-29T15:14:00+00:00",
                "collection": {
                    "collectedDateTime": "2022-01-29T10:18:00+00:00"
                }
            },
            "request": {
                "method": "POST",
                "url": "Specimen"
            }
        },
        {
            "fullUrl": "urn:uuid:ad717ae8-cb35-4d66-ba51-e22a76b1d158",
            "resource": {
                "resourceType": "Observation",
                "id": "ad717ae8-cb35-4d66-ba51-e22a76b1d158",
                "identifier":  [
                    {
                        "system": "https://tools.ietf.org/html/rfc4122",
                        "value": "2af46949-4938-4c57-bad4-c4363e1965d5"
                    }
                ],
                "status": "final",
                "category":  [
                    {
                        "coding":  [
                            {
                                "system": "http://terminology.hl7.org/CodeSystem/observation-category",
                                "code": "laboratory",
                                "display": "Laboratory"
                            }
                        ]
                    }
                ],
                "code": {
                    "coding":  [
                        {
                            "system": "http://snomed.info/sct",
                            "code": "1107481000000106",
                            "display": "HbA1c (haemoglobin A1c) substance concentration in blood"
                        }
                    ]
                },
                "subject": {
                    "reference": "urn:uuid:ab87a3f8-1d37-44a9-804e-5e962598a6e4",
                    "display": "WELSH, Joel"
                },
                "issued": "2022-01-30T12:48:00+00:00",
                "performer":  [
                    {
                        "reference": "urn:uuid:8a6d85b8-9837-4fed-a257-4cf207988338",
                        "display": "TD008362 PATH LAB 001"
                    }
                ],
                "valueQuantity": {
                    "value": 54,
                    "unit": "mmol/mol",
                    "system": "http://unitsofmeasure.org",
                    "code": "mmol/mol"
                },
                "specimen": {
                    "reference": "urn:uuid:bab0eaec-1ec5-4598-b660-90bb38a1030d"
                },
                "referenceRange":  [
                    {
                        "text": "DIAGNOSIS OF DIABETES MELLITUS:\nHbA1c of 48 mmol/mol and above is diagnostic of DM (WHO 2011)\n42 - 47 mmol/mol indicates high risk of DM (NICE Guidance PH38 2012)\n\nMONITORING OF DIABETES MELLITUS (ADULTS):\nType 2 target values: 48 mmol/mol – 57 mmol/mol (NICE Guidelines NG28)\nType 1 target values: 48 mmol/mol or lower (NICE Guidelines NG17)"
                    }
                ]
            },
            "request": {
                "method": "POST",
                "url": "Observation"
            }
        }
    ]
}
