{
    "resourceType": "Bundle",
    "id": "path-R4-example-bundle-LFT-UandE-report",
    "meta": {
        "lastUpdated": "2022-03-08T14:23:00+00:00"
    },
    "type": "transaction",
    "entry": [
        {
            "fullUrl": "urn:uuid:8a6d85b8-9837-4fed-a257-4cf207988338",
            "resource": {
                "resourceType": "Organization",
                "id": "8a6d85b8-9837-4fed-a257-4cf207988338",
                "identifier": [
                    {
                        "system": "https://fhir.nhs.uk/Id/ods-organization-code",
                        "value": "Y8J7D"
                    }
                ],
                "name": "TD008362 PATH LAB 001",
                "address": [
                    {
                        "line": [
                            "PATHOLOGY LAB",
                            "7-8 WELLINGTON PLACE"
                        ],
                        "city": "LEEDS",
                        "district": "WEST YORKSHIRE",
                        "postalCode": "LS1 4AP"
                    }
                ]
            },
            "request": {
                "method": "POST",
                "url": "Organization"
            }
        },
        {
            "fullUrl": "urn:uuid:3c43b5b3-06d6-445f-ae9a-48d5f05df434",
            "resource": {
                "resourceType": "Organization",
                "id": "3c43b5b3-06d6-445f-ae9a-48d5f05df434",
                "identifier": [
                    {
                        "system": "https://fhir.nhs.uk/Id/ods-organization-code",
                        "value": "B82033"
                    }
                ],
                "name": "PICKERING MEDICAL PRACTICE",
                "address": [
                    {
                        "line": [
                            "SOUTHGATE"
                        ],
                        "city": "PICKERING",
                        "district": "NORTH YORKSHIRE",
                        "postalCode": "YO18 8BL"
                    }
                ]
            },
            "request": {
                "method": "POST",
                "url": "Organization"
            }
        },
        {
            "fullUrl": "urn:uuid:9a835acf-d715-4d84-8dcf-a8435f6417fe",
            "resource": {
                "resourceType": "PractitionerRole",
                "id": "9a835acf-d715-4d84-8dcf-a8435f6417fe",
                "identifier": [
                    {
                        "system": "https://fhir.nhs.uk/Id/sds-role-profile-id",
                        "value": "123456789012"
                    }
                ],
                "practitioner": {
                    "reference": "urn:uuid:bf166714-9527-40fc-84ec-0c4ba6487e12"
                },
                "organization": {
                    "reference": "urn:uuid:8a6d85b8-9837-4fed-a257-4cf207988338",
                    "display": "TD008362 PATH LAB 001"
                }
            },
            "request": {
                "method": "POST",
                "url": "PractitionerRole"
            }
        },
        {
            "fullUrl": "urn:uuid:bf166714-9527-40fc-84ec-0c4ba6487e12",
            "resource": {
                "resourceType": "Practitioner",
                "id": "bf166714-9527-40fc-84ec-0c4ba6487e12",
                "identifier": [
                    {
                        "system": "https://fhir.nhs.uk/Id/sds-user-id",
                        "value": "1233456789"
                    }
                ],
                "name": [
                    {
                        "use": "official",
                        "family": "GASKELL",
                        "given": [
                            "Gale"
                        ],
                        "prefix": [
                            "Dr"
                        ]
                    }
                ]
            },
            "request": {
                "method": "POST",
                "url": "Practitioner"
            }
        },
        {
            "fullUrl": "urn:uuid:ab87a3f8-1d37-44a9-804e-5e962598a6e4",
            "resource": {
                "resourceType": "Patient",
                "id": "ab87a3f8-1d37-44a9-804e-5e962598a6e4",
                "identifier": [
                    {
                        "system": "https://fhir.nhs.uk/Id/nhs-number",
                        "value": "9727710638"
                    }
                ],
                "name": [
                    {
                        "use": "official",
                        "family": "WELSH",
                        "given": [
                            "Joel"
                        ]
                    }
                ],
                "gender": "male",
                "birthDate": "1972-08-23",
                "address": [
                    {
                        "line": [
                            "ACONBURY",
                            "LARPOOL DRIVE"
                        ],
                        "district": "NORTH YORKSHIRE",
                        "postalCode": "YO22 4ND"
                    }
                ]
            },
            "request": {
                "method": "POST",
                "url": "Patient"
            }
        },
        {
            "fullUrl": "urn:uuid:1c38d507-9ad7-4b49-ba91-7da204842cac",
            "resource": {
                "resourceType": "ServiceRequest",
                "id": "1c38d507-9ad7-4b49-ba91-7da204842cac",
                "identifier": [
                    {
                        "system": "https://fhir.nhs.uk/Id/UBRN",
                        "value": "REQ-20220307-000046-001"
                    },
                    {
                        "system": "http://B82033-pickeringmedicalpractice.com/labrequest",
                        "value": "REQ-20220307-000046-001"
                    }
                ],
                "requisition": {
                    "system": "http://B82033-pickeringmedicalpractice.com/labrequest",
                    "value": "REQ-20220307-000046"
                },
                "category": [
                    {
                        "coding": [
                            {
                                "system": "http://snomed.info/sct",
                                "code": "108252007",
                                "display": "Laboratory procedure"
                            }
                        ]
                    }
                ],
                "status": "active",
                "intent": "order",
                "code": {
                    "coding": [
                        {
                            "system": "http://snomed.info/sct",
                            "code": "26958001",
                            "display": "Hepatic function panel"
                        }
                    ]
                },
                "subject": {
                    "reference": "urn:uuid:ab87a3f8-1d37-44a9-804e-5e962598a6e4",
                    "display": "WELSH, Joel"
                },
                "authoredOn": "2022-03-07T09:48:00+00:00",
                "requester": {
                    "reference": "urn:uuid:9a835acf-d715-4d84-8dcf-a8435f6417fe",
                    "display": "GASKELL, Gale"
                },
                "performer": [
                    {
                        "reference": "urn:uuid:8a6d85b8-9837-4fed-a257-4cf207988338",
                        "display": "TD008362 PATH LAB 001"
                    }
                ]
            },
            "request": {
                "method": "POST",
                "url": "ServiceRequest"
            }
        },
        {
            "fullUrl": "urn:uuid:8660ef6a-65ef-408f-92ce-b4d6d03d783c",
            "resource": {
                "resourceType": "ServiceRequest",
                "id": "8660ef6a-65ef-408f-92ce-b4d6d03d783c",
                "identifier": [
                    {
                        "system": "https://fhir.nhs.uk/Id/UBRN",
                        "value": "REQ-20220307-000046-002"
                    },
                    {
                        "system": "http://B82033-pickeringmedicalpractice.com/labrequest",
                        "value": "REQ-20220307-000046-002"
                    }
                ],
                "requisition": {
                    "system": "http://B82033-pickeringmedicalpractice.com/labrequest",
                    "value": "REQ-20220307-000046"
                },
                "category": [
                    {
                        "coding": [
                            {
                                "system": "http://snomed.info/sct",
                                "code": "108252007",
                                "display": "Laboratory procedure"
                            }
                        ]
                    }
                ],
                "status": "active",
                "intent": "order",
                "code": {
                    "coding": [
                        {
                            "system": "http://snomed.info/sct",
                            "code": "252167001",
                            "display": "Urea and electrolytes"
                        }
                    ]
                },
                "subject": {
                    "reference": "urn:uuid:ab87a3f8-1d37-44a9-804e-5e962598a6e4",
                    "display": "WELSH, Joel"
                },
                "authoredOn": "2022-03-07T09:48:00+00:00",
                "requester": {
                    "reference": "urn:uuid:9a835acf-d715-4d84-8dcf-a8435f6417fe",
                    "display": "GASKELL, Gale"
                },
                "performer": [
                    {
                        "reference": "urn:uuid:8a6d85b8-9837-4fed-a257-4cf207988338",
                        "display": "TD008362 PATH LAB 001"
                    }
                ]
            },
            "request": {
                "method": "POST",
                "url": "ServiceRequest"
            }
        },
        {
            "fullUrl": "urn:uuid:35d46ca1-f253-4c97-b7ee-fb5fccdf6c20",
            "resource": {
                "resourceType": "DiagnosticReport",
                "id": "35d46ca1-f253-4c97-b7ee-fb5fccdf6c20",
                "identifier": [
                    {
                        "system": "http://Y8J7D-pathlab001.com/report",
                        "value": "REP-20220308-008902"
                    }
                ],
                "basedOn": [
                    {
                        "reference": "urn:uuid:1c38d507-9ad7-4b49-ba91-7da204842cac"
                    },
                    {
                        "reference": "urn:uuid:8660ef6a-65ef-408f-92ce-b4d6d03d783c"
                    }
                ],
                "status": "final",
                "code": {
                    "coding": [
                        {
                            "system": "http://snomed.info/sct",
                            "code": "721981007",
                            "display": "Diagnostic studies report"
                        }
                    ]
                },
                "subject": {
                    "reference": "urn:uuid:ab87a3f8-1d37-44a9-804e-5e962598a6e4",
                    "display": "WELSH, Joel"
                },
                "issued": "2022-03-08T14:23:00+00:00",
                "performer": [
                    {
                        "reference": "urn:uuid:8a6d85b8-9837-4fed-a257-4cf207988338",
                        "display": "TD008362 PATH LAB 001"
                    }
                ],
                "specimen": [
                    {
                        "reference": "urn:uuid:bab0eaec-1ec5-4598-b660-90bb38a1030d"
                    }
                ],
                "result": [
                    {
                        "reference": "urn:uuid:33a88119-6dbc-4bdf-809a-c1d822b74e90"
                    },
                    {
                        "reference": "urn:uuid:a5c7f5e2-eb95-469b-b588-f7861c260ccb"
                    }
                ]
            },
            "request": {
                "method": "POST",
                "url": "DiagnosticReport"
            }
        },
        {
            "fullUrl": "urn:uuid:bab0eaec-1ec5-4598-b660-90bb38a1030d",
            "resource": {
                "resourceType": "Specimen",
                "id": "bab0eaec-1ec5-4598-b660-90bb38a1030d",
                "identifier": [
                    {
                        "system": "http://B82033-pickeringmedicalpractice.com/specimen",
                        "value": "SPC-REQ-20220307-000014"
                    }
                ],
                "accessionIdentifier": {
                    "system": "http://Y8J7D-pathlab001.com/specimen",
                    "value": "SPC-LAB-20220307-007856"
                },
                "status": "available",
                "type": {
                    "coding": [
                        {
                            "system": "http://snomed.info/sct",
                            "code": "122555007",
                            "display": "Venous blood specimen"
                        }
                    ]
                },
                "subject": {
                    "reference": "urn:uuid:ab87a3f8-1d37-44a9-804e-5e962598a6e4",
                    "display": "WELSH, Joel"
                },
                "receivedTime": "2022-03-07T14:54:00+00:00",
                "request": [
                    {
                        "reference": "urn:uuid:8660ef6a-65ef-408f-92ce-b4d6d03d783c"
                    }
                ],
                "collection": {
                    "collectedDateTime": "2022-03-07T10:02:00+00:00"
                }
            },
            "request": {
                "method": "POST",
                "url": "Specimen"
            }
        },
        {
            "fullUrl": "urn:uuid:33a88119-6dbc-4bdf-809a-c1d822b74e90",
            "resource": {
                "resourceType": "Observation",
                "id": "33a88119-6dbc-4bdf-809a-c1d822b74e90",
                "identifier": [
                    {
                        "system": "https://tools.ietf.org/html/rfc4122",
                        "value": "9920b5d3-9f19-41df-8d5a-fd2d4288e305"
                    }
                ],
                "status": "final",
                "code": {
                    "coding": [
                        {
                            "system": "http://snomed.info/sct",
                            "code": "26958001",
                            "display": "Hepatic function panel"
                        }
                    ]
                },
                "subject": {
                    "reference": "urn:uuid:ab87a3f8-1d37-44a9-804e-5e962598a6e4",
                    "display": "WELSH, Joel"
                },
                "effectiveDateTime": "2022-03-08T14:23:00+00:00",
                "issued": "2022-03-08T14:23:00+00:00",
                "performer": [
                    {
                        "reference": "urn:uuid:8a6d85b8-9837-4fed-a257-4cf207988338",
                        "display": "TD008362 PATH LAB 001"
                    }
                ],
                "hasMember": [
                    {
                        "reference": "urn:uuid:47faffbf-34c0-45b2-9c65-285f89fd1521"
                    },
                    {
                        "reference": "urn:uuid:aa8aa37b-3a69-478f-a2be-947af624d7cb"
                    },
                    {
                        "reference": "urn:uuid:3f98327b-f215-4bc5-bd52-ed6477a3da4a"
                    }
                ]
            },
            "request": {
                "method": "POST",
                "url": "Observation"
            }
        },
        {
            "fullUrl": "urn:uuid:47faffbf-34c0-45b2-9c65-285f89fd1521",
            "resource": {
                "resourceType": "Observation",
                "id": "47faffbf-34c0-45b2-9c65-285f89fd1521",
                "identifier": [
                    {
                        "system": "https://tools.ietf.org/html/rfc4122",
                        "value": "a26ada79-ac32-4ff8-a3e4-fb5950462271"
                    }
                ],
                "status": "final",
                "code": {
                    "coding": [
                        {
                            "system": "http://snomed.info/sct",
                            "code": "1107221000000109",
                            "display": "Total bilirubin substance concentration in serum"
                        }
                    ]
                },
                "subject": {
                    "reference": "urn:uuid:ab87a3f8-1d37-44a9-804e-5e962598a6e4",
                    "display": "WELSH, Joel"
                },
                "effectiveDateTime": "2022-03-08T14:23:00+00:00",
                "issued": "2022-03-08T14:23:00+00:00",
                "performer": [
                    {
                        "reference": "urn:uuid:8a6d85b8-9837-4fed-a257-4cf207988338",
                        "display": "TD008362 PATH LAB 001"
                    }
                ],
                "valueQuantity": {
                    "value": 6,
                    "unit": "umol/L",
                    "system": "http://unitsofmeasure.org",
                    "code": "umol/L"
                },
                "specimen": {
                    "reference": "urn:uuid:bab0eaec-1ec5-4598-b660-90bb38a1030d"
                },
                "referenceRange": [
                    {
                        "high": {
                            "value": 21
                        }
                    }
                ],
                "derivedFrom": [
                    {
                        "reference": "Observation/33a88119-6dbc-4bdf-809a-c1d822b74e90"
                    }
                ]
            },
            "request": {
                "method": "POST",
                "url": "Observation"
            }
        },
        {
            "fullUrl": "urn:uuid:aa8aa37b-3a69-478f-a2be-947af624d7cb",
            "resource": {
                "resourceType": "Observation",
                "id": "aa8aa37b-3a69-478f-a2be-947af624d7cb",
                "identifier": [
                    {
                        "system": "https://tools.ietf.org/html/rfc4122",
                        "value": "b9c64863-06b5-4e98-b226-8ef28059f238"
                    }
                ],
                "status": "final",
                "code": {
                    "coding": [
                        {
                            "system": "http://snomed.info/sct",
                            "code": "3391000237104",
                            "display": "Alkaline phosphatase liver isoenzyme enzyme activity in serum"
                        }
                    ]
                },
                "subject": {
                    "reference": "urn:uuid:ab87a3f8-1d37-44a9-804e-5e962598a6e4",
                    "display": "WELSH, Joel"
                },
                "effectiveDateTime": "2022-03-08T14:23:00+00:00",
                "issued": "2022-03-08T14:23:00+00:00",
                "performer": [
                    {
                        "reference": "urn:uuid:8a6d85b8-9837-4fed-a257-4cf207988338",
                        "display": "TD008362 PATH LAB 001"
                    }
                ],
                "valueQuantity": {
                    "value": 96,
                    "unit": "iu/L",
                    "system": "http://unitsofmeasure.org",
                    "code": "[iU]/L"
                },
                "specimen": {
                    "reference": "urn:uuid:bab0eaec-1ec5-4598-b660-90bb38a1030d"
                },
                "referenceRange": [
                    {
                        "low": {
                            "value": 30
                        },
                        "high": {
                            "value": 130
                        }
                    }
                ],
                "derivedFrom": [
                    {
                        "reference": "Observation/33a88119-6dbc-4bdf-809a-c1d822b74e90"
                    }
                ]
            },
            "request": {
                "method": "POST",
                "url": "Observation"
            }
        },
        {
            "fullUrl": "urn:uuid:3f98327b-f215-4bc5-bd52-ed6477a3da4a",
            "resource": {
                "resourceType": "Observation",
                "id": "3f98327b-f215-4bc5-bd52-ed6477a3da4a",
                "identifier": [
                    {
                        "system": "https://tools.ietf.org/html/rfc4122",
                        "value": "9f022172-f721-4657-ab23-a28157e783af"
                    }
                ],
                "status": "final",
                "code": {
                    "coding": [
                        {
                            "system": "http://snomed.info/sct",
                            "code": "1106081000000100",
                            "display": "Alanine aminotransferase enzyme activity in serum"
                        }
                    ]
                },
                "subject": {
                    "reference": "urn:uuid:ab87a3f8-1d37-44a9-804e-5e962598a6e4",
                    "display": "WELSH, Joel"
                },
                "effectiveDateTime": "2022-03-08T14:23:00+00:00",
                "issued": "2022-03-08T14:23:00+00:00",
                "performer": [
                    {
                        "reference": "urn:uuid:8a6d85b8-9837-4fed-a257-4cf207988338",
                        "display": "TD008362 PATH LAB 001"
                    }
                ],
                "valueQuantity": {
                    "value": 15,
                    "unit": "iu/L",
                    "system": "http://unitsofmeasure.org",
                    "code": "[iU]/L"
                },
                "specimen": {
                    "reference": "urn:uuid:bab0eaec-1ec5-4598-b660-90bb38a1030d"
                },
                "referenceRange": [
                    {
                        "high": {
                            "value": 40
                        }
                    }
                ],
                "derivedFrom": [
                    {
                        "reference": "Observation/33a88119-6dbc-4bdf-809a-c1d822b74e90"
                    }
                ]
            },
            "request": {
                "method": "POST",
                "url": "Observation"
            }
        },
        {
            "fullUrl": "urn:uuid:a5c7f5e2-eb95-469b-b588-f7861c260ccb",
            "resource": {
                "resourceType": "Observation",
                "id": "a5c7f5e2-eb95-469b-b588-f7861c260ccb",
                "identifier": [
                    {
                        "system": "https://tools.ietf.org/html/rfc4122",
                        "value": "c949a08a-49f9-4093-9f17-67d23ec92e46"
                    }
                ],
                "status": "final",
                "code": {
                    "coding": [
                        {
                            "system": "http://snomed.info/sct",
                            "code": "26958001",
                            "display": "Hepatic function panel"
                        }
                    ]
                },
                "subject": {
                    "reference": "urn:uuid:ab87a3f8-1d37-44a9-804e-5e962598a6e4",
                    "display": "WELSH, Joel"
                },
                "effectiveDateTime": "2022-03-08T14:23:00+00:00",
                "issued": "2022-03-08T14:23:00+00:00",
                "performer": [
                    {
                        "reference": "urn:uuid:8a6d85b8-9837-4fed-a257-4cf207988338",
                        "display": "TD008362 PATH LAB 001"
                    }
                ],
                "hasMember": [
                    {
                        "reference": "urn:uuid:c6989afa-156a-4f7e-ab91-d4249680d8bf"
                    },
                    {
                        "reference": "urn:uuid:f5a0e88f-a76a-4526-8927-579771471c58"
                    },
                    {
                        "reference": "urn:uuid:aa2151a3-3f5b-4f0d-9074-52563aa77c6c"
                    },
                    {
                        "reference": "urn:uuid:3c6b11c8-83b6-4402-90b9-2e1e7400d7cc"
                    },
                    {
                        "reference": "urn:uuid:e6127f03-4a96-45d3-abd8-1adcf0189be4"
                    }
                ]
            },
            "request": {
                "method": "POST",
                "url": "Observation"
            }
        },
        {
            "fullUrl": "urn:uuid:c6989afa-156a-4f7e-ab91-d4249680d8bf",
            "resource": {
                "resourceType": "Observation",
                "id": "c6989afa-156a-4f7e-ab91-d4249680d8bf",
                "identifier": [
                    {
                        "system": "https://tools.ietf.org/html/rfc4122",
                        "value": "ac255464-4557-40ee-8f53-ef3104b10872"
                    }
                ],
                "status": "final",
                "code": {
                    "coding": [
                        {
                            "system": "http://snomed.info/sct",
                            "code": "1110281000000107",
                            "display": "Urea substance concentration in serum"
                        }
                    ]
                },
                "subject": {
                    "reference": "urn:uuid:ab87a3f8-1d37-44a9-804e-5e962598a6e4",
                    "display": "WELSH, Joel"
                },
                "effectiveDateTime": "2022-03-08T14:23:00+00:00",
                "issued": "2022-03-08T14:23:00+00:00",
                "performer": [
                    {
                        "reference": "urn:uuid:8a6d85b8-9837-4fed-a257-4cf207988338",
                        "display": "TD008362 PATH LAB 001"
                    }
                ],
                "valueQuantity": {
                    "value": 3.7,
                    "unit": "mmol/L",
                    "system": "http://unitsofmeasure.org",
                    "code": "mmol/L"
                },
                "specimen": {
                    "reference": "urn:uuid:bab0eaec-1ec5-4598-b660-90bb38a1030d"
                },
                "referenceRange": [
                    {
                        "low": {
                            "value": 2.5
                        },
                        "high": {
                            "value": 7.8
                        }
                    }
                ],
                "derivedFrom": [
                    {
                        "reference": "Observation/a5c7f5e2-eb95-469b-b588-f7861c260ccb"
                    }
                ]
            },
            "request": {
                "method": "POST",
                "url": "Observation"
            }
        },
        {
            "fullUrl": "urn:uuid:f5a0e88f-a76a-4526-8927-579771471c58",
            "resource": {
                "resourceType": "Observation",
                "id": "f5a0e88f-a76a-4526-8927-579771471c58",
                "identifier": [
                    {
                        "system": "https://tools.ietf.org/html/rfc4122",
                        "value": "b1890fe7-ef3b-4d74-bc2f-665059d0c9d7"
                    }
                ],
                "status": "final",
                "code": {
                    "coding": [
                        {
                            "system": "http://snomed.info/sct",
                            "code": "1107871000000107",
                            "display": "Sodium substance concentration in serum"
                        }
                    ]
                },
                "subject": {
                    "reference": "urn:uuid:ab87a3f8-1d37-44a9-804e-5e962598a6e4",
                    "display": "WELSH, Joel"
                },
                "effectiveDateTime": "2022-03-08T14:23:00+00:00",
                "issued": "2022-03-08T14:23:00+00:00",
                "performer": [
                    {
                        "reference": "urn:uuid:8a6d85b8-9837-4fed-a257-4cf207988338",
                        "display": "TD008362 PATH LAB 001"
                    }
                ],
                "valueQuantity": {
                    "value": 139,
                    "unit": "mmol/L",
                    "system": "http://unitsofmeasure.org",
                    "code": "mmol/L"
                },
                "specimen": {
                    "reference": "urn:uuid:bab0eaec-1ec5-4598-b660-90bb38a1030d"
                },
                "referenceRange": [
                    {
                        "low": {
                            "value": 133
                        },
                        "high": {
                            "value": 146
                        }
                    }
                ],
                "derivedFrom": [
                    {
                        "reference": "Observation/a5c7f5e2-eb95-469b-b588-f7861c260ccb"
                    }
                ]
            },
            "request": {
                "method": "POST",
                "url": "Observation"
            }
        },
        {
            "fullUrl": "urn:uuid:aa2151a3-3f5b-4f0d-9074-52563aa77c6c",
            "resource": {
                "resourceType": "Observation",
                "id": "aa2151a3-3f5b-4f0d-9074-52563aa77c6c",
                "identifier": [
                    {
                        "system": "https://tools.ietf.org/html/rfc4122",
                        "value": "b88011a3-e10b-4f35-b388-5622c4e8d808"
                    }
                ],
                "status": "final",
                "code": {
                    "coding": [
                        {
                            "system": "http://snomed.info/sct",
                            "code": "1107751000000106",
                            "display": "Potassium substance concentration in plasma"
                        }
                    ]
                },
                "subject": {
                    "reference": "urn:uuid:ab87a3f8-1d37-44a9-804e-5e962598a6e4",
                    "display": "WELSH, Joel"
                },
                "effectiveDateTime": "2022-03-08T14:23:00+00:00",
                "issued": "2022-03-08T14:23:00+00:00",
                "performer": [
                    {
                        "reference": "urn:uuid:8a6d85b8-9837-4fed-a257-4cf207988338",
                        "display": "TD008362 PATH LAB 001"
                    }
                ],
                "valueQuantity": {
                    "value": 4.7,
                    "unit": "mmol/L",
                    "system": "http://unitsofmeasure.org",
                    "code": "mmol/L"
                },
                "specimen": {
                    "reference": "urn:uuid:bab0eaec-1ec5-4598-b660-90bb38a1030d"
                },
                "referenceRange": [
                    {
                        "low": {
                            "value": 3.5
                        },
                        "high": {
                            "value": 5.3
                        }
                    }
                ],
                "derivedFrom": [
                    {
                        "reference": "Observation/a5c7f5e2-eb95-469b-b588-f7861c260ccb"
                    }
                ]
            },
            "request": {
                "method": "POST",
                "url": "Observation"
            }
        },
        {
            "fullUrl": "urn:uuid:3c6b11c8-83b6-4402-90b9-2e1e7400d7cc",
            "resource": {
                "resourceType": "Observation",
                "id": "3c6b11c8-83b6-4402-90b9-2e1e7400d7cc",
                "identifier": [
                    {
                        "system": "https://tools.ietf.org/html/rfc4122",
                        "value": "86fb479a-ab58-4f99-81de-af848d9af40c"
                    }
                ],
                "status": "final",
                "code": {
                    "coding": [
                        {
                            "system": "http://snomed.info/sct",
                            "code": "1107001000000108",
                            "display": "Creatinine substance concentration in serum"
                        }
                    ]
                },
                "subject": {
                    "reference": "urn:uuid:ab87a3f8-1d37-44a9-804e-5e962598a6e4",
                    "display": "WELSH, Joel"
                },
                "effectiveDateTime": "2022-03-08T14:23:00+00:00",
                "issued": "2022-03-08T14:23:00+00:00",
                "performer": [
                    {
                        "reference": "urn:uuid:8a6d85b8-9837-4fed-a257-4cf207988338",
                        "display": "TD008362 PATH LAB 001"
                    }
                ],
                "valueQuantity": {
                    "value": 73,
                    "unit": "umol/L",
                    "system": "http://unitsofmeasure.org",
                    "code": "umol/L"
                },
                "specimen": {
                    "reference": "urn:uuid:bab0eaec-1ec5-4598-b660-90bb38a1030d"
                },
                "referenceRange": [
                    {
                        "low": {
                            "value": 59
                        },
                        "high": {
                            "value": 104
                        }
                    }
                ],
                "derivedFrom": [
                    {
                        "reference": "Observation/a5c7f5e2-eb95-469b-b588-f7861c260ccb"
                    }
                ]
            },
            "request": {
                "method": "POST",
                "url": "Observation"
            }
        },
        {
            "fullUrl": "urn:uuid:e6127f03-4a96-45d3-abd8-1adcf0189be4",
            "resource": {
                "resourceType": "Observation",
                "id": "e6127f03-4a96-45d3-abd8-1adcf0189be4",
                "identifier": [
                    {
                        "system": "https://tools.ietf.org/html/rfc4122",
                        "value": "c6d25926-fb74-400b-98b8-47ae7393f127"
                    }
                ],
                "status": "final",
                "code": {
                    "coding": [
                        {
                            "system": "http://snomed.info/sct",
                            "code": "857971000000104",
                            "display": "eGFR (estimated glomerular filtration rate) using CKD-Epi (Chronic Kidney Disease Epidemiology Collaboration) formula"
                        }
                    ]
                },
                "subject": {
                    "reference": "urn:uuid:ab87a3f8-1d37-44a9-804e-5e962598a6e4",
                    "display": "WELSH, Joel"
                },
                "effectiveDateTime" :"2022-03-08T14:23:00+00:00",
                "issued": "2022-03-08T14:23:00+00:00",
                "performer": [
                    {
                        "reference": "urn:uuid:8a6d85b8-9837-4fed-a257-4cf207988338",
                        "display": "TD008362 PATH LAB 001"
                    }
                ],
                "valueQuantity": {
                    "value": 100,
                    "unit": "mL/min/1.73m2",
                    "system": "http://unitsofmeasure.org",
                    "code": "mL/min/((173/100).m2)"
                },
                "note": [
                    {
                        "text": "Calculated eGFR is not valid in children or pregnancy.\r\nLess accurate with acute change in creatinine (AKI).\r\nCaution with high or low muscle mass or amputation.\r\nAvoid blood sampling within 12 hours of eating meat.\r\nEthnicity factor comment removed Dec21 NG203."
                    }
                ],
                "specimen": {
                    "reference": "urn:uuid:bab0eaec-1ec5-4598-b660-90bb38a1030d"
                },
                "derivedFrom": [
                    {
                        "reference": "Observation/a5c7f5e2-eb95-469b-b588-f7861c260ccb"
                    }
                ]
            },
            "request": {
                "method": "POST",
                "url": "Observation"
            }
        }
    ]
}