<?xml version="1.0" encoding="UTF-8"?>
<Bundle xmlns="http://hl7.org/fhir">
  <id value="MCED-CancerMarkersDetectedSingleProbableSite-Example" />
  <meta>
    <lastUpdated value="2020-09-20T10:22:00+00:00" />
    <profile value="https://fhir.hl7.org.uk/StructureDefinition/UKCore-Bundle" />
  </meta>
  <identifier>
    <system value="https://tools.ietf.org/html/rfc4122" />
    <value value="8693565b-5e18-423e-8922-52bdaff17104" />
  </identifier>
  <type value="message" />
  <entry>
    <fullUrl value="urn:uuid:0a43b490-de91-4665-ab8b-0e868ea7f043" />
    <resource>
      <MessageHeader>
        <id value="0a43b490-de91-4665-ab8b-0e868ea7f043" />
        <eventCoding>
          <system value="http://snomed.info/sct" />
          <code value="371528001" />
          <display value="Pathology report" />
        </eventCoding>
        <destination>
          <name value="Executive Agency - NHS ENGLAND - X26" />
          <endpoint value="mesh-mailbox-nhs" />
          <receiver>
            <reference value="urn:uuid:bf7a76d3-5b44-4194-a9e0-d1cc1ea5e50e" />
          </receiver>
        </destination>
        <sender>
          <reference value="urn:uuid:d6407de7-0e86-45eb-93cb-035094aaa49e" />
        </sender>
        <source>
          <endpoint value="mesh-mailbox-ScreeningOrg" />
        </source>
        <focus>
          <!--Goes to the DiagnosticReport-->
          <reference value="urn:uuid:871032f5-a59e-4e11-954a-867519e0e640" />
        </focus>
        <definition value="https://fhir.nhs.uk/England/MessageDefinition/England-MCED-TestReport" />
      </MessageHeader>
    </resource>
  </entry>
  <entry>
    <fullUrl value="urn:uuid:d6407de7-0e86-45eb-93cb-035094aaa49e" />
    <resource>
      <!--Screening org-->
      <Organization>
        <id value="d6407de7-0e86-45eb-93cb-035094aaa49e" />
        <identifier>
          <system value="https://fhir.nhs.uk/Id/ods-organization-code" />
          <value value="ABC123" />
        </identifier>
        <name value="Screening Organisation Ltd" />
        <address>
          <text value="Screening Organisation Ltd, Floor 1, High Rise, Anytown, AT5 5TT" />
        </address>
      </Organization>
    </resource>
  </entry>
  <entry>
    <fullUrl value="urn:uuid:e78b5421-8d55-4f61-8cbf-bee1c69513f1" />
    <resource>
      <!--performing lab-->
      <Organization>
        <id value="e78b5421-8d55-4f61-8cbf-bee1c69513f1" />
        <identifier>
          <system value="http://terminology.hl7.org/NamingSystem/CLIA" />
          <value value="ScreeningLab34D2231294CLIA" />
        </identifier>
        <identifier>
          <system value="http://terminology.hl7.org/NamingSystem/CAP" />
          <value value="ScreeningLab6793CAP" />
        </identifier>
        <name value="Screening Lab Name" />
        <telecom>
          <system value="phone" />
          <value value="+18336942553" />
        </telecom>
        <telecom>
          <system value="fax" />
          <value value="+16509999000" />
        </telecom>
        <telecom>
          <system value="email" />
          <value value="customerservice@screeninglab.com" />
        </telecom>
        <address>
          <text value="Screening Lab Name, The Lab, Anytown, AT66 7TY" />
        </address>
        <contact>
          <name>
            <text value="Ms Lab DIRECTOR" />
          </name>
        </contact>
      </Organization>
    </resource>
  </entry>
  <entry>
    <fullUrl value="urn:uuid:bf7a76d3-5b44-4194-a9e0-d1cc1ea5e50e" />
    <resource>
      <!--NHS England-->
      <Organization>
        <id value="bf7a76d3-5b44-4194-a9e0-d1cc1ea5e50e" />
        <identifier>
          <system value="https://fhir.nhs.uk/Id/ods-organization-code" />
          <value value="X26" />
        </identifier>
        <name value="Executive Agency - NHS ENGLAND - X26" />
        <address>
          <line value="THE LEEDS GOVERNMENT HUB" />
          <line value="7-8 WELLINGTON PLACE" />
          <city value="LEEDS" />
          <district value="WEST YORKSHIRE" />
          <postalCode value="LS1 4AP" />
        </address>
      </Organization>
    </resource>
  </entry>
  <entry>
    <fullUrl value="urn:uuid:e638a8c1-d2ce-4866-8874-b58ad4476928" />
    <resource>
      <!--requesting practitioner-->
      <Practitioner>
        <id value="e638a8c1-d2ce-4866-8874-b58ad4476928" />
        <identifier>
          <system value="https://fhir.nhs.uk/Id/sds-user-id" />
          <value value="3415870223" />
        </identifier>
        <name>
          <text value="Dr. Daniel Davies" />
        </name>
        <address>
          <text value="NHS England, Wellington House, 133-155 Waterloo Road, London, SE1 8UG, UK" />
        </address>
      </Practitioner>
    </resource>
  </entry>
  <entry>
    <fullUrl value="urn:uuid:9e64b25a-c5db-4ac8-9bd5-8e93ca3df299" />
    <resource>
      <Patient>
        <id value="9e64b25a-c5db-4ac8-9bd5-8e93ca3df299" />
        <meta>
          <profile value="https://fhir.hl7.org.uk/StructureDefinition/UKCore-Patient" />
        </meta>
        <identifier>
          <system value="https://ScreeningOrg/patient-id" />
          <value value="NHS-AB12-CD34" />
        </identifier>
      </Patient>
    </resource>
  </entry>
  <entry>
    <fullUrl value="urn:uuid:ebb4078d-4365-47d8-b2cc-538e2b0a749a" />
    <resource>
      <ServiceRequest>
        <id value="ebb4078d-4365-47d8-b2cc-538e2b0a749a" />
        <identifier>
          <system value="http://ScreeningOrg/request-id" />
          <value value="NHS9123123" />
        </identifier>
        <status value="active" />
        <intent value="order" />
        <code>
          <coding>
            <system value="http://snomed.info/sct" />
            <code value="1148754001" />
            <display value="Screening for neoplasm" />
          </coding>
        </code>
        <subject>
          <reference value="urn:uuid:9e64b25a-c5db-4ac8-9bd5-8e93ca3df299" />
          <display value="NHS-AB12-CD34" />
        </subject>
        <requester>
          <reference value="urn:uuid:e638a8c1-d2ce-4866-8874-b58ad4476928" />
          <display value="Dr. Daniel Davies" />
        </requester>
        <performer>
          <reference value="urn:uuid:e78b5421-8d55-4f61-8cbf-bee1c69513f1" />
          <display value="Screening Lab" />
        </performer>
      </ServiceRequest>
    </resource>
  </entry>
  <entry>
    <fullUrl value="urn:uuid:871032f5-a59e-4e11-954a-867519e0e640" />
    <resource>
      <DiagnosticReport>
        <id value="871032f5-a59e-4e11-954a-867519e0e640" />
        <extension url="http://hl7.org/fhir/5.0/StructureDefinition/extension-DiagnosticReport.note">
          <valueAnnotation>
            <text value="Some Lab Comments" />
          </valueAnnotation>
        </extension>
        <basedOn>
          <reference value="urn:uuid:ebb4078d-4365-47d8-b2cc-538e2b0a749a" />
        </basedOn>
        <status value="final" />
        <code>
          <coding>
            <system value="http://snomed.info/sct" />
            <code value="721981007" />
            <display value="Diagnostic studies report" />
          </coding>
        </code>
        <subject>
          <reference value="urn:uuid:9e64b25a-c5db-4ac8-9bd5-8e93ca3df299" />
          <display value="NHS-AB12-CD34" />
        </subject>
        <issued value="2020-09-25T16:00:00+00:00" />
        <performer>
          <reference value="urn:uuid:e78b5421-8d55-4f61-8cbf-bee1c69513f1" />
          <display value="Screening Lab" />
        </performer>
        <specimen>
          <reference value="urn:uuid:189fd847-0b83-40f4-98d4-89421e4a89af" />
          <display value="NHS9123123" />
        </specimen>
        <!--result is the Observation grouper-->
        <result>
          <reference value="urn:uuid:a7d5aec0-e404-4fd7-90d5-0c3b5df77ea1" />
        </result>
        <conclusion value="The test results report PDF document is the official source of the test result and contains important information regarding the test and the patient&#39;s test results. Please read the official report for complete results." />
        <!--The PDF report goes here-->
        <presentedForm>
          <contentType value="application/pdf" />
          <data value="VGhlIEdSQUlMIFBERiBnb2VzIGhlcmU=" />
        </presentedForm>
      </DiagnosticReport>
    </resource>
  </entry>
  <entry>
    <fullUrl value="urn:uuid:a7d5aec0-e404-4fd7-90d5-0c3b5df77ea1" />
    <resource>
      <!--the grouper Observation-->
      <Observation>
        <id value="a7d5aec0-e404-4fd7-90d5-0c3b5df77ea1" />
        <identifier>
          <system value="http://ScreeningOrg/request-id" />
          <value value="NHS9123123" />
        </identifier>
        <status value="final" />
        <code>
          <coding>
            <system value="http://snomed.info/sct" />
            <code value="1148754001" />
            <display value="Screening for neoplasm" />
          </coding>
        </code>
        <subject>
          <reference value="urn:uuid:9e64b25a-c5db-4ac8-9bd5-8e93ca3df299" />
          <display value="NHS-AB12-CD34" />
        </subject>
        <issued value="2020-09-25T16:00:00+00:00" />
        <performer>
          <reference value="urn:uuid:e78b5421-8d55-4f61-8cbf-bee1c69513f1" />
          <display value="Screening Lab" />
        </performer>
        <specimen>
          <reference value="urn:uuid:189fd847-0b83-40f4-98d4-89421e4a89af" />
          <display value="NHS9123123" />
        </specimen>
        <!--the overall detected / not detected-->
        <hasMember>
          <reference value="urn:uuid:82faf6a6-e463-41ca-a957-5a8e4cbef879" />
        </hasMember>
        <!--primary site-->
        <hasMember>
          <reference value="urn:uuid:52860bac-8a23-4386-9198-aaceffa4dbb5" />
        </hasMember>
      </Observation>
    </resource>
  </entry>
  <entry>
    <fullUrl value="urn:uuid:82faf6a6-e463-41ca-a957-5a8e4cbef879" />
    <resource>
      <!--marker detected Observation-->
      <Observation>
        <id value="82faf6a6-e463-41ca-a957-5a8e4cbef879" />
        <identifier>
          <system value="http://ScreeningOrg/request-id" />
          <value value="NHS9123123" />
        </identifier>
        <basedOn>
          <reference value="urn:uuid:ebb4078d-4365-47d8-b2cc-538e2b0a749a" />
        </basedOn>
        <status value="final" />
        <code>
          <coding>
            <system value="http://snomed.info/sct" />
            <code value="1854971000000106" />
            <display value="Qualitative result of cancer methylation profile in cell free deoxyribonucleic acid by next generation sequencing" />
          </coding>
        </code>
        <subject>
          <reference value="urn:uuid:9e64b25a-c5db-4ac8-9bd5-8e93ca3df299" />
          <display value="NHS-AB12-CD34" />
        </subject>
        <issued value="2020-09-25T16:00:00+00:00" />
        <performer>
          <reference value="urn:uuid:e78b5421-8d55-4f61-8cbf-bee1c69513f1" />
          <display value="Screening Lab" />
        </performer>
        <valueCodeableConcept>
          <coding>
            <system value="http://snomed.info/sct" />
            <code value="1854981000000108" />
            <display value="Multi-cancer early detection signal detected" />
          </coding>
        </valueCodeableConcept>
        <specimen>
          <reference value="urn:uuid:189fd847-0b83-40f4-98d4-89421e4a89af" />
          <display value="NHS9123123" />
        </specimen>
      </Observation>
    </resource>
  </entry>
  <entry>
    <fullUrl value="urn:uuid:52860bac-8a23-4386-9198-aaceffa4dbb5" />
    <resource>
      <!--primary site observation-->
      <Observation xmlns="http://hl7.org/fhir">
        <id value="52860bac-8a23-4386-9198-aaceffa4dbb5" />
        <identifier>
          <system value="http://ScreeningOrg/request-id" />
          <value value="NHS9123123" />
        </identifier>
        <status value="final" />
        <code>
          <coding>
            <system value="http://snomed.info/sct" />
            <code value="1873921000000106" />
            <display value="Multi-cancer early detection highest scored cancer signal origin by machine learning-based classifier" />
          </coding>
        </code>
        <subject>
          <reference value="urn:uuid:9e64b25a-c5db-4ac8-9bd5-8e93ca3df299" />
          <display value="NHS-AB12-CD34" />
        </subject>
        <issued value="2019-01-29T16:00:00+00:00" />
        <performer>
          <reference value="urn:uuid:e78b5421-8d55-4f61-8cbf-bee1c69513f1" />
          <display value="Screening Lab" />
        </performer>
        <component>
          <code>
            <coding>
              <system value="http://snomed.info/sct" />
              <code value="123037004" />
              <display value="Body structure" />
            </coding>
          </code>
          <valueCodeableConcept>
            <coding>
              <system value="http://snomed.info/sct" />
              <code value="89837001" />
              <display value="Urinary bladder structure" />
            </coding>
          </valueCodeableConcept>
        </component>
      </Observation>
    </resource>
  </entry>
  <entry>
    <fullUrl value="urn:uuid:189fd847-0b83-40f4-98d4-89421e4a89af" />
    <resource>
      <Specimen>
        <id value="189fd847-0b83-40f4-98d4-89421e4a89af" />
        <identifier>
          <system value="http://ScreeningOrg/request-id" />
          <value value="NHS9123123" />
        </identifier>
        <status value="available" />
        <type>
          <coding>
            <system value="http://snomed.info/sct" />
            <code value="119297000" />
            <display value="Blood specimen" />
          </coding>
        </type>
        <subject>
          <reference value="urn:uuid:9e64b25a-c5db-4ac8-9bd5-8e93ca3df299" />
          <display value="NHS-AB12-CD34" />
        </subject>
        <collection>
          <collectedDateTime value="2020-09-23T11:00:00+00:00" />
        </collection>
      </Specimen>
    </resource>
  </entry>
</Bundle>
