<Bundle xmlns="http://hl7.org/fhir">
  <id value="Pathology-Bundle-RenalFunctionTests-Example" />
  <meta>
    <lastUpdated value="2020-09-20T10:22:00+00:00" />
    <profile value="https://fhir.hl7.org.uk/StructureDefinition/UKCore-Bundle" />
  </meta>
  <identifier>
    <system value="https://tools.ietf.org/html/rfc4122" />
    <value value="g36927ef-7703-45ed-b0e5-6ec6723cf0g7" />
  </identifier>
  <type value="message" />
  <entry>
    <fullUrl value="urn:uuid:7f883ed3-d19d-4edf-972e-03052cb94113" />
    <resource>
      <MessageHeader>
        <id value="7f883ed3-d19d-4edf-972e-03052cb94113" />
        <meta>
          <profile value="https://fhir.hl7.org.uk/StructureDefinition/UKCore-MessageHeader" />
        </meta>
        <eventCoding>
          <system value="http://snomed.info/sct" />
          <code value="371528001" />
          <display value="Pathology report" />
        </eventCoding>
        <destination>
          <name value="MANOR GP PRACTICE" />
          <endpoint value="llp:10.11.12.14:7777" />
          <receiver>
            <reference value="urn:uuid:cf7a76d3-5b44-4194-a9e0-d1cc1ea5e51f" />
          </receiver>
        </destination>
        <sender>
          <reference value="urn:uuid:e6407de7-0e86-45eb-93cb-035094aaa50f" />
        </sender>
        <source>
          <endpoint value="NOROT003" />
        </source>
        <focus>
          <reference value="urn:uuid:ffae5859-28df-4e7d-be91-6df56d8215f5" />
        </focus>
        <definition value="https://fhir.nhs.uk/England/MessageDefinition/England-Pathology-Report" />
      </MessageHeader>
    </resource>
  </entry>
  <entry>
    <fullUrl value="urn:uuid:e6407de7-0e86-45eb-93cb-035094aaa50f" />
    <resource>
      <Organization>
        <id value="e6407de7-0e86-45eb-93cb-035094aaa50f" />
        <meta>
          <profile value="https://fhir.hl7.org.uk/StructureDefinition/UKCore-Organization" />
        </meta>
        <identifier>
          <system value="https://fhir.nhs.uk/Id/ods-organization-code" />
          <value value="RBE77" />
        </identifier>
        <name value="Midtown District Hospital (Blood Sciences)" />
        <address>
          <line value="MIDTOWN NHS FOUNDATION TRUST" />
          <line value="BlOOD SCIENCES" />
          <line value="KING STREET" />
          <city value="MIDTOWN" />
          <district value="MIDTOWNSHIRE" />
          <postalCode value="MD9 7TF" />
        </address>
      </Organization>
    </resource>
  </entry>
  <entry>
    <fullUrl value="urn:uuid:cf7a76d3-5b44-4194-a9e0-d1cc1ea5e51f" />
    <resource>
      <Organization>
        <id value="cf7a76d3-5b44-4194-a9e0-d1cc1ea5e51f" />
        <meta>
          <profile value="https://fhir.hl7.org.uk/StructureDefinition/UKCore-Organization" />
        </meta>
        <identifier>
          <system value="https://fhir.nhs.uk/Id/ods-organization-code" />
          <value value="D77014" />
        </identifier>
        <name value="MANOR GP PRACTICE" />
        <address>
          <line value="10/12 MANOR STREET" />
          <city value="MIDTOWN" />
          <district value="MIDTOWNSHIRE" />
          <postalCode value="MD37 7AH" />
        </address>
      </Organization>
    </resource>
  </entry>
  <!--Requesting Practitioner: Dr Jane Green, GP.-->
  <entry>
    <fullUrl value="urn:uuid:2c9793d4-aa5e-419f-9f4e-b61736d01d35" />
    <resource>
      <Practitioner>
        <id value="2c9793d4-aa5e-419f-9f4e-b61736d01d35" />
        <meta>
          <profile value="https://fhir.hl7.org.uk/StructureDefinition/UKCore-Practitioner" />
        </meta>
        <identifier>
          <system value="https://fhir.nhs.uk/Id/sds-user-id" />
          <value value="3415870356" />
        </identifier>
        <name>
          <use value="official" />
          <family value="Green" />
          <given value="Jane" />
          <prefix value="Dr" />
          <suffix value="MB ChB" />
          <suffix value="RCGP" />
        </name>
      </Practitioner>
    </resource>
  </entry>
  <entry>
    <fullUrl value="urn:uuid:aa098351-1f2b-4b97-acec-44b528d443fd" />
    <resource>
      <Patient>
        <id value="aa098351-1f2b-4b97-acec-44b528d443fd" />
        <meta>
          <profile value="https://fhir.hl7.org.uk/StructureDefinition/UKCore-Patient" />
        </meta>
        <identifier>
          <extension url="https://fhir.hl7.org.uk/StructureDefinition/Extension-UKCore-NHSNumberVerificationStatus">
            <valueCodeableConcept>
              <coding>
                <system value="https://fhir.hl7.org.uk/CodeSystem/UKCore-NHSNumberVerificationStatusEngland" />
                <code value="01" />
                <display value="Number present and verified" />
              </coding>
            </valueCodeableConcept>
          </extension>
          <system value="https://fhir.nhs.uk/Id/nhs-number" />
          <value value="9432003812" />
        </identifier>
        <name>
          <use value="official" />
          <family value="Stanner" />
          <given value="Lisa" />
        </name>
        <gender value="female" />
        <birthDate value="1960-05-20" />
      </Patient>
    </resource>
  </entry>
  <entry>
    <fullUrl value="urn:uuid:8fcba023-12e9-4f22-94b6-03cab7c0777a" />
    <resource>
      <ServiceRequest>
        <id value="8fcba023-12e9-4f22-94b6-03cab7c0777a" />
        <meta>
          <profile value="https://fhir.hl7.org.uk/StructureDefinition/UKCore-ServiceRequest" />
        </meta>
        <identifier>
          <system value="https://tools.ietf.org/html/rfc4122" />
          <value value="8f9bbd01-4e52-420d-b05b-48bc671d6819" />
        </identifier>
        <status value="active" />
        <intent value="order" />
        <code>
          <coding>
            <system value="http://snomed.info/sct" />
            <code value="54610007" />
            <display value="Kidney panel" />
          </coding>
        </code>
        <subject>
          <reference value="urn:uuid:aa098351-1f2b-4b97-acec-44b528d443fd" />
          <display value="STANNER, Lisa" />
        </subject>
        <requester>
          <reference value="urn:uuid:2c9793d4-aa5e-419f-9f4e-b61736d01d35" />
          <display value="GREEN" />
        </requester>
        <performer>
          <reference value="urn:uuid:cf7a76d3-5b44-4194-a9e0-d1cc1ea5e51f" />
          <display value="MANOR GP PRACTICE" />
        </performer>
      </ServiceRequest>
    </resource>
  </entry>
  <entry>
    <fullUrl value="urn:uuid:ffae5859-28df-4e7d-be91-6df56d8215f5" />
    <resource>
      <DiagnosticReport>
        <id value="ffae5859-28df-4e7d-be91-6df56d8215f5" />
        <meta>
          <profile value="https://fhir.hl7.org.uk/StructureDefinition/UKCore-DiagnosticReport" />
        </meta>
        <!--Test Request Summary-->
        <identifier>
          <system value="http://acme.com/MidtownDHL/reports" />
          <value value="5234355" />
        </identifier>
        <basedOn>
          <reference value="urn:uuid:8fcba023-12e9-4f22-94b6-03cab7c0777a" />
        </basedOn>
        <status value="final" />
        <category>
          <coding>
            <system value="http://terminology.hl7.org/CodeSystem/v2-0074" />
            <code value="LAB" />
            <display value="Laboratory" />
          </coding>
        </category>
        <code>
          <coding>
            <system value="http://snomed.info/sct" />
            <code value="721981007" />
            <display value="Diagnostic studies report" />
          </coding>
        </code>
        <subject>
          <reference value="urn:uuid:aa098351-1f2b-4b97-acec-44b528d443fd" />
          <display value="STANNER, Lisa" />
        </subject>
        <issued value="2019-11-04T12:00:00+00:00" />
        <performer>
          <reference value="urn:uuid:e6407de7-0e86-45eb-93cb-035094aaa50f" />
          <display value="Midtown District Hospital (Blood Sciences)" />
        </performer>
        <specimen>
          <reference value="urn:uuid:9d3e52ff-b39b-4cef-9957-7bdac97d8e13" />
        </specimen>
        <result>
          <reference value="urn:uuid:ebcb177a-9501-4dcc-8b22-b941791ae1ec" />
        </result>
      </DiagnosticReport>
    </resource>
  </entry>
  <entry>
    <fullUrl value="urn:uuid:9d3e52ff-b39b-4cef-9957-7bdac97d8e13" />
    <resource>
      <Specimen>
        <id value="9d3e52ff-b39b-4cef-9957-7bdac97d8e13" />
        <meta>
          <profile value="https://fhir.hl7.org.uk/StructureDefinition/UKCore-Specimen" />
        </meta>
        <identifier>
          <system value="https://tools.ietf.org/html/rfc4122" />
          <value value="2c663fc5-9dec-49c0-9eed-18a7cfa5a6c3" />
        </identifier>
        <accessionIdentifier>
          <system value="http://lab.acme.org/specimens/2020/MidtownDHL" />
          <value value="X352377" />
        </accessionIdentifier>
        <status value="available" />
        <type>
          <coding>
            <system value="http://snomed.info/sct" />
            <code value="119361006" />
            <display value="Plasma specimen" />
          </coding>
        </type>
        <subject>
          <reference value="urn:uuid:aa098351-1f2b-4b97-acec-44b528d443fd" />
          <display value="STANNER, Lisa" />
        </subject>
        <receivedTime value="2019-11-01T15:00:00+00:00" />
        <collection>
          <collectedDateTime value="2019-11-01T11:00:00+00:00" />
        </collection>
      </Specimen>
    </resource>
  </entry>
  <!--Renal function tests-->
  <entry>
    <fullUrl value="urn:uuid:ebcb177a-9501-4dcc-8b22-b941791ae1ec" />
    <resource>
      <Observation>
        <id value="ebcb177a-9501-4dcc-8b22-b941791ae1ec" />
        <meta>
          <profile value="https://fhir.hl7.org.uk/StructureDefinition/UKCore-Observation" />
        </meta>
        <identifier>
          <system value="https://tools.ietf.org/html/rfc4122" />
          <value value="5ff46949-4938-4c57-bad4-c4363e1965g7" />
        </identifier>
        <status value="final" />
        <!--Renal function tests-->
        <code>
          <coding>
            <system value="http://snomed.info/sct" />
            <code value="1015971000000100" />
            <display value="Renal function tests" />
          </coding>
        </code>
        <subject>
          <reference value="urn:uuid:aa098351-1f2b-4b97-acec-44b528d443fd" />
          <display value="STANNER, Lisa" />
        </subject>
        <effectiveDateTime value="2019-11-01T15:00:00+00:00" />
        <performer>
          <reference value="urn:uuid:e6407de7-0e86-45eb-93cb-035094aaa50f" />
          <display value="Midtown District Hospital (Blood Sciences)" />
        </performer>
        <specimen>
          <reference value="urn:uuid:9d3e52ff-b39b-4cef-9957-7bdac97d8e13" />
        </specimen>
        <!--Component of Test of Battery 1-->
        <hasMember>
          <!--Sodium substance concentration in serum-->
          <reference value="urn:uuid:6690bbb3-9a74-4426-9787-35d0caeab76d" />
        </hasMember>
        <hasMember>
          <!--Potassium substance concentration in serum-->
          <reference value="urn:uuid:bb99bda1-a118-4463-806d-c88681c842b9" />
        </hasMember>
        <hasMember>
          <!--Chloride substance concentration in serum-->
          <reference value="urn:uuid:5eda41b3-4f58-45e1-9854-458d89d38162" />
        </hasMember>
        <hasMember>
          <!--Creatinine substance concentration in serum-->
          <reference value="urn:uuid:b3751035-ee56-4135-a265-8dfa0e8b0683" />
        </hasMember>
        <hasMember>
          <!--Estimated glomerular filtration rate by laboratory calculation-->
          <reference value="urn:uuid:108a4300-b289-4806-add6-32aad4725370" />
        </hasMember>
      </Observation>
    </resource>
  </entry>
  <!--Renal function test: Sodium substance concentration in serum-->
  <entry>
    <fullUrl value="urn:uuid:6690bbb3-9a74-4426-9787-35d0caeab76d" />
    <resource>
      <Observation>
        <id value="6690bbb3-9a74-4426-9787-35d0caeab76d" />
        <meta>
          <profile value="https://fhir.hl7.org.uk/StructureDefinition/UKCore-Observation" />
        </meta>
        <identifier>
          <system value="https://tools.ietf.org/html/rfc4122" />
          <value value="6gf46949-4938-4c57-bad4-c4363e1965h8" />
        </identifier>
        <status value="final" />
        <code>
          <coding>
            <system value="http://snomed.info/sct" />
            <code value="1107871000000107" />
            <display value="Sodium substance concentration in serum" />
          </coding>
        </code>
        <subject>
          <reference value="urn:uuid:aa098351-1f2b-4b97-acec-44b528d443fd" />
          <display value="STANNER, Lisa" />
        </subject>
        <effectiveDateTime value="2019-11-01T15:00:00+00:00" />
        <performer>
          <reference value="urn:uuid:e6407de7-0e86-45eb-93cb-035094aaa50f" />
          <display value="Midtown District Hospital (Blood Sciences)" />
        </performer>
        <valueQuantity>
          <value value="142" />
          <unit value="mmol/L" />
          <system value="https://unitsofmeasure.org" />
          <code value="mmol/L" />
        </valueQuantity>
        <specimen>
          <reference value="urn:uuid:9d3e52ff-b39b-4cef-9957-7bdac97d8e13" />
        </specimen>
        <referenceRange>
          <low>
            <value value="133" />
          </low>
          <high>
            <value value="146" />
          </high>
        </referenceRange>
      </Observation>
    </resource>
  </entry>
  <!--Renal function test: Potassium substance concentration in serum-->
  <entry>
    <fullUrl value="urn:uuid:bb99bda1-a118-4463-806d-c88681c842b9" />
    <resource>
      <Observation>
        <id value="bb99bda1-a118-4463-806d-c88681c842b9" />
        <meta>
          <profile value="https://fhir.hl7.org.uk/StructureDefinition/UKCore-Observation" />
        </meta>
        <identifier>
          <system value="https://tools.ietf.org/html/rfc4122" />
          <value value="7if46949-4938-4c57-bad4-c4363e1965i8" />
        </identifier>
        <status value="final" />
        <code>
          <coding>
            <system value="http://snomed.info/sct" />
            <code value="1107761000000109" />
            <display value="Potassium substance concentration in serum" />
          </coding>
        </code>
        <subject>
          <reference value="urn:uuid:aa098351-1f2b-4b97-acec-44b528d443fd" />
          <display value="STANNER, Lisa" />
        </subject>
        <effectiveDateTime value="2019-11-01T15:00:00+00:00" />
        <performer>
          <reference value="urn:uuid:e6407de7-0e86-45eb-93cb-035094aaa50f" />
          <display value="Midtown District Hospital (Blood Sciences)" />
        </performer>
        <valueQuantity>
          <value value="4.8" />
          <unit value="mmol/L" />
          <system value="https://unitsofmeasure.org" />
          <code value="mmol/L" />
        </valueQuantity>
        <specimen>
          <reference value="urn:uuid:9d3e52ff-b39b-4cef-9957-7bdac97d8e13" />
        </specimen>
        <referenceRange>
          <low>
            <value value="3.5" />
          </low>
          <high>
            <value value="5.3" />
          </high>
        </referenceRange>
      </Observation>
    </resource>
  </entry>
  <!--Renal function test: Chloride substance concentration in serum-->
  <entry>
    <fullUrl value="urn:uuid:5eda41b3-4f58-45e1-9854-458d89d38162" />
    <resource>
      <Observation>
        <id value="5eda41b3-4f58-45e1-9854-458d89d38162" />
        <meta>
          <profile value="https://fhir.hl7.org.uk/StructureDefinition/UKCore-Observation" />
        </meta>
        <identifier>
          <system value="https://tools.ietf.org/html/rfc4122" />
          <value value="8jf46949-4938-4c57-bad4-c4363e1965j8" />
        </identifier>
        <status value="final" />
        <code>
          <coding>
            <system value="http://snomed.info/sct" />
            <code value="1106511000000102" />
            <display value="Chloride substance concentration in serum" />
          </coding>
        </code>
        <subject>
          <reference value="urn:uuid:aa098351-1f2b-4b97-acec-44b528d443fd" />
          <display value="STANNER, Lisa" />
        </subject>
        <effectiveDateTime value="2019-11-01T15:00:00+00:00" />
        <performer>
          <reference value="urn:uuid:e6407de7-0e86-45eb-93cb-035094aaa50f" />
          <display value="Midtown District Hospital (Blood Sciences)" />
        </performer>
        <valueQuantity>
          <value value="105" />
          <unit value="mmol/L" />
          <system value="https://unitsofmeasure.org" />
          <code value="mmol/L" />
        </valueQuantity>
        <specimen>
          <reference value="urn:uuid:9d3e52ff-b39b-4cef-9957-7bdac97d8e13" />
        </specimen>
        <referenceRange>
          <low>
            <value value="95" />
          </low>
          <high>
            <value value="108" />
          </high>
        </referenceRange>
      </Observation>
    </resource>
  </entry>
  <!--Renal function test: Creatinine substance concentration in serum-->
  <entry>
    <fullUrl value="urn:uuid:b3751035-ee56-4135-a265-8dfa0e8b0683" />
    <resource>
      <Observation>
        <id value="b3751035-ee56-4135-a265-8dfa0e8b0683" />
        <meta>
          <profile value="https://fhir.hl7.org.uk/StructureDefinition/UKCore-Observation" />
        </meta>
        <identifier>
          <system value="https://tools.ietf.org/html/rfc4122" />
          <value value="8kf46949-4938-4c57-bad4-c4363e1965k8" />
        </identifier>
        <status value="final" />
        <code>
          <coding>
            <system value="http://snomed.info/sct" />
            <code value="1107001000000108" />
            <display value="Creatinine substance concentration in serum" />
          </coding>
        </code>
        <subject>
          <reference value="urn:uuid:aa098351-1f2b-4b97-acec-44b528d443fd" />
          <display value="STANNER, Lisa" />
        </subject>
        <effectiveDateTime value="2019-11-01T15:00:00+00:00" />
        <performer>
          <reference value="urn:uuid:e6407de7-0e86-45eb-93cb-035094aaa50f" />
          <display value="Midtown District Hospital (Blood Sciences)" />
        </performer>
        <valueQuantity>
          <value value="64" />
          <unit value="umol/L" />
          <system value="https://unitsofmeasure.org" />
          <code value="umol/L" />
        </valueQuantity>
        <specimen>
          <reference value="urn:uuid:9d3e52ff-b39b-4cef-9957-7bdac97d8e13" />
        </specimen>
        <referenceRange>
          <low>
            <value value="48" />
          </low>
          <high>
            <value value="128" />
          </high>
        </referenceRange>
      </Observation>
    </resource>
  </entry>
  <!--Renal function test: Estimated glomerular filtration rate by laboratory calculation-->
  <entry>
    <fullUrl value="urn:uuid:108a4300-b289-4806-add6-32aad4725370" />
    <resource>
      <Observation>
        <id value="108a4300-b289-4806-add6-32aad4725370" />
        <meta>
          <profile value="https://fhir.hl7.org.uk/StructureDefinition/UKCore-Observation" />
        </meta>
        <identifier>
          <system value="https://tools.ietf.org/html/rfc4122" />
          <value value="9lf46949-4938-4c57-bad4-c4363e1965l9" />
        </identifier>
        <status value="final" />
        <code>
          <coding>
            <system value="http://snomed.info/sct" />
            <code value="1107411000000104" />
            <display value="Estimated glomerular filtration rate by laboratory calculation" />
          </coding>
        </code>
        <subject>
          <reference value="urn:uuid:aa098351-1f2b-4b97-acec-44b528d443fd" />
          <display value="STANNER, Lisa" />
        </subject>
        <effectiveDateTime value="2019-11-01T15:00:00+00:00" />
        <performer>
          <reference value="urn:uuid:e6407de7-0e86-45eb-93cb-035094aaa50f" />
          <display value="Midtown District Hospital (Blood Sciences)" />
        </performer>
        <valueQuantity>
          <value value="87" />
          <unit value="mL/min/1.73m2" />
          <system value="https://unitsofmeasure.org" />
          <code value="mL/min/((173/100).m2)" />
        </valueQuantity>
        <note>
          <text value="The EGFR quoted must be multiplied by 1.2 if the patient is of Afro-Caribbean origin." />
        </note>
        <specimen>
          <reference value="urn:uuid:9d3e52ff-b39b-4cef-9957-7bdac97d8e13" />
        </specimen>
      </Observation>
    </resource>
  </entry>
</Bundle>