<Bundle xmlns="http://hl7.org/fhir">
  <id value="UpdateRARecordTransaction-Bundle-Example" />
  <type value="transaction" />
  <entry>
    <fullUrl value="Patient/PatientFlag-AlanMann-Example" />
    <resource>
      <Patient>
        <id value="PatientFlag-AlanMann-Example" />
        <meta>
          <profile value="https://fhir.hl7.org.uk/StructureDefinition/UKCore-Patient" />
        </meta>
        <identifier>
          <system value="https://fhir.nhs.uk/Id/nhs-number" />
          <value value="9912003888" />
        </identifier>
        <active value="true" />
        <name>
          <use value="official" />
          <family value="Mann" />
          <given value="Alan" />
        </name>
        <gender value="male" />
        <birthDate value="1970-01-01" />
      </Patient>
    </resource>
    <request>
      <method value="PUT" />
      <url value="Patient/PatientFlag-AlanMann-Example" />
    </request>
  </entry>
  <entry>
    <fullUrl value="Condition/RA-Condition-Example" />
    <resource>
      <Condition>
        <id value="RA-Condition-Example" />
        <meta>
          <profile value="https://fhir.nhs.uk/England/StructureDefinition/England-Condition-Flag" />
        </meta>
        <contained>
          <Provenance>
            <id value="6a6b18a7-c077-49da-929f-a8dd38468f79" />
            <meta>
              <profile value="https://fhir.nhs.uk/England/StructureDefinition/England-Provenance-Flag" />
            </meta>
            <target>
              <reference value="#" />
            </target>
            <recorded value="2024-01-01T11:00:00+00:00" />
            <activity>
              <coding>
                <system value="http://terminology.hl7.org/CodeSystem/v3-DataOperation" />
                <code value="CREATE" />
                <display value="create" />
              </coding>
            </activity>
            <agent>
              <role>
                <coding>
                  <system value="https://fhir.hl7.org.uk/STU3/CodeSystem/CareConnect-SDSJobRoleName-1" />
                  <code value="R0260" />
                  <display value="General Medical Practitioner" />
                </coding>
              </role>
              <who>
                <reference value="https://sds.spineservices.nhs.uk/Practitioner/2ee4tr6a9" />
              </who>
              <onBehalfOf>
                <reference value="https://directory.spineservices.nhs.uk/Organization/a3e5i7" />
              </onBehalfOf>
            </agent>
          </Provenance>
        </contained>
        <clinicalStatus>
          <coding>
            <system value="http://terminology.hl7.org/CodeSystem/condition-clinical" />
            <code value="active" />
          </coding>
        </clinicalStatus>
        <category>
          <coding>
            <system value="https://fhir.nhs.uk/England/CodeSystem/England-FlagCategoryPatient" />
            <code value="national-reasonable-adjustment-flag" />
            <display value="National Reasonable Adjustments Flag" />
          </coding>
        </category>
        <category>
          <coding>
            <system value="https://fhir.nhs.uk/England/CodeSystem/England-ConditionCategoryRA" />
            <code value="issue" />
            <display value="Issue" />
          </coding>
        </category>
        <code>
          <coding>
            <system value="https://fhir.nhs.uk/England/CodeSystem/England-ConditionCodeRA" />
            <code value="learning" />
            <display value="Learning or understanding or concentrating" />
          </coding>
        </code>
        <subject>
          <reference value="Patient/PatientFlag-AlanMann-Example" />
        </subject>
      </Condition>
    </resource>
    <request>
      <method value="PUT" />
      <url value="Condition/RA-Condition-Example" />
    </request>
  </entry>
  <entry>
    <fullUrl value="Flag/RA-PatientFlag-Example" />
    <resource>
      <Flag>
        <id value="RA-PatientFlag-Example" />
        <meta>
          <profile value="https://fhir.nhs.uk/England/StructureDefinition/England-Flag-PatientFlag" />
        </meta>
        <contained>
          <Provenance>
            <id value="c4e2e862-3bf4-4176-a186-9f1732938260" />
            <meta>
              <profile value="https://fhir.nhs.uk/England/StructureDefinition/England-Provenance-Flag" />
            </meta>
            <target>
              <reference value="#" />
            </target>
            <recorded value="2024-01-01T11:00:00+00:00" />
            <activity>
              <coding>
                <system value="http://terminology.hl7.org/CodeSystem/v3-DataOperation" />
                <code value="CREATE" />
                <display value="create" />
              </coding>
            </activity>
            <agent>
              <role>
                <coding>
                  <system value="https://fhir.hl7.org.uk/STU3/CodeSystem/CareConnect-SDSJobRoleName-1" />
                  <code value="R0260" />
                  <display value="General Medical Practitioner" />
                </coding>
              </role>
              <who>
                <reference value="https://sds.spineservices.nhs.uk/Practitioner/2ee4tr6a9" />
              </who>
              <onBehalfOf>
                <reference value="https://directory.spineservices.nhs.uk/Organization/a3e5i7" />
              </onBehalfOf>
            </agent>
          </Provenance>
        </contained>
        <extension url="https://fhir.nhs.uk/England/StructureDefinition/Extension-FlagNotes">
          <valueAnnotation>
            <text value="Example of flag notes extension text in patient flag" />
          </valueAnnotation>
        </extension>
        <extension url="http://hl7.org/fhir/StructureDefinition/flag-detail">
          <valueReference>
            <reference value="Condition/RA-Condition-Example" />
            <type value="Condition" />
          </valueReference>
        </extension>
        <extension url="http://hl7.org/fhir/StructureDefinition/flag-detail">
          <valueReference>
            <reference value="Consent/RA-Consent-Example" />
            <type value="Consent" />
          </valueReference>
        </extension>
        <extension url="http://hl7.org/fhir/StructureDefinition/flag-detail">
          <valueReference>
            <reference value="Flag/RA-Flag-Example" />
            <type value="Flag" />
          </valueReference>
        </extension>
        <status value="active" />
        <code>
          <coding>
            <system value="https://fhir.nhs.uk/England/CodeSystem/England-FlagCategoryPatient" />
            <code value="national-reasonable-adjustment-flag" />
            <display value="National Reasonable Adjustments Flag" />
          </coding>
        </code>
        <subject>
          <reference value="Patient/PatientFlag-AlanMann-Example" />
        </subject>
      </Flag>
    </resource>
    <request>
      <method value="PUT" />
      <url value="Flag/RA-PatientFlag-Example" />
    </request>
  </entry>
  <entry>
    <fullUrl value="Flag/RA-Flag-Example" />
    <resource>
      <Flag>
        <id value="RA-Flag-Example" />
        <meta>
          <profile value="https://fhir.nhs.uk/England/StructureDefinition/England-Flag-PatientFlag-Adjustment" />
        </meta>
        <contained>
          <Provenance>
            <id value="873a38eb-0f9c-4a66-a4e9-8e4be2350d6b" />
            <target>
              <reference value="#" />
            </target>
            <recorded value="2024-01-01T11:00:00+00:00" />
            <activity>
              <coding>
                <system value="http://terminology.hl7.org/CodeSystem/v3-DataOperation" />
                <code value="CREATE" />
                <display value="create" />
              </coding>
            </activity>
            <agent>
              <role>
                <coding>
                  <system value="https://fhir.hl7.org.uk/STU3/CodeSystem/CareConnect-SDSJobRoleName-1" />
                  <code value="R0260" />
                  <display value="General Medical Practitioner" />
                </coding>
              </role>
              <who>
                <reference value="https://sds.spineservices.nhs.uk/Practitioner/2ee4tr6a9" />
              </who>
              <onBehalfOf>
                <reference value="https://directory.spineservices.nhs.uk/Organization/a3e5i7" />
              </onBehalfOf>
            </agent>
          </Provenance>
        </contained>
        <extension url="https://fhir.nhs.uk/England/StructureDefinition/Extension-FlagNotes">
          <valueAnnotation>
            <text value="Example of flag notes extension text in adjustment flag" />
          </valueAnnotation>
        </extension>
        <status value="active" />
        <category>
          <coding>
            <system value="https://fhir.nhs.uk/England/CodeSystem/England-FlagCategoryPatient" />
            <code value="national-reasonable-adjustment-flag" />
            <display value="National Reasonable Adjustments Flag" />
          </coding>
        </category>
        <category>
          <coding>
            <system value="https://fhir.nhs.uk/England/CodeSystem/England-FlagCategoryRA" />
            <code value="communication-support" />
            <display value="Communication support" />
          </coding>
        </category>
        <code>
          <coding>
            <system value="https://snomed.info/sct" />
            <code value="1082681000000103" />
            <display value="Requires support for receptive communication needs" />
          </coding>
        </code>
        <subject>
          <reference value="Patient/PatientFlag-AlanMann-Example" />
        </subject>
      </Flag>
    </resource>
    <request>
      <method value="PUT" />
      <url value="Flag/RA-Flag-Example" />
    </request>
  </entry>
  <entry>
    <fullUrl value="Condition/RA-Condition2-Example" />
    <resource>
      <Condition>
        <id value="RA-Condition2-Example" />
        <meta>
          <profile value="https://fhir.nhs.uk/England/StructureDefinition/England-Condition-Flag" />
        </meta>
        <contained>
          <Provenance>
            <id value="f55e1edc-8ac7-4e06-b322-25fd34e62249" />
            <meta>
              <profile value="https://fhir.nhs.uk/England/StructureDefinition/England-Provenance-Flag" />
            </meta>
            <target>
              <reference value="#" />
            </target>
            <recorded value="2024-01-01T11:00:00+00:00" />
            <activity>
              <coding>
                <system value="http://terminology.hl7.org/CodeSystem/v3-DataOperation" />
                <code value="CREATE" />
                <display value="create" />
              </coding>
            </activity>
            <agent>
              <role>
                <coding>
                  <system value="https://fhir.hl7.org.uk/STU3/CodeSystem/CareConnect-SDSJobRoleName-1" />
                  <code value="R0260" />
                  <display value="General Medical Practitioner" />
                </coding>
              </role>
              <who>
                <reference value="https://sds.spineservices.nhs.uk/Practitioner/2ee4tr6a9" />
              </who>
              <onBehalfOf>
                <reference value="https://directory.spineservices.nhs.uk/Organization/a3e5i7" />
              </onBehalfOf>
            </agent>
          </Provenance>
        </contained>
        <clinicalStatus>
          <coding>
            <system value="http://terminology.hl7.org/CodeSystem/condition-clinical" />
            <code value="active" />
          </coding>
        </clinicalStatus>
        <category>
          <coding>
            <system value="https://fhir.nhs.uk/England/CodeSystem/England-FlagCategoryPatient" />
            <code value="national-reasonable-adjustment-flag" />
            <display value="National Reasonable Adjustments Flag" />
          </coding>
        </category>
        <category>
          <coding>
            <system value="https://fhir.nhs.uk/England/CodeSystem/England-ConditionCategoryRA" />
            <code value="issue" />
            <display value="Issue" />
          </coding>
        </category>
        <code>
          <coding>
            <system value="https://fhir.nhs.uk/England/CodeSystem/England-ConditionCodeRA" />
            <code value="social" />
            <display value="Social or behavioural (for example associated with autism spectrum disorder (ASD) which includes Asperger’s, or attention deficit hyperactivity disorder (ADHD))" />
          </coding>
        </code>
        <subject>
          <reference value="Patient/PatientFlag-AlanMann-Example" />
        </subject>
      </Condition>
    </resource>
    <request>
      <method value="PUT" />
      <url value="Condition/RA-Condition2-Example" />
    </request>
  </entry>
  <entry>
    <fullUrl value="Flag/RA-Flag2-Example" />
    <resource>
      <Flag>
        <id value="RA-Flag2-Example" />
        <meta>
          <profile value="https://fhir.nhs.uk/England/StructureDefinition/England-Flag-PatientFlag-Adjustment" />
        </meta>
        <contained>
          <Provenance>
            <id value="71f8bcda-242d-4401-a59c-6924a6cb1c0e" />
            <target>
              <reference value="#" />
            </target>
            <recorded value="2024-01-01T11:00:00+00:00" />
            <activity>
              <coding>
                <system value="http://terminology.hl7.org/CodeSystem/v3-DataOperation" />
                <code value="CREATE" />
                <display value="create" />
              </coding>
            </activity>
            <agent>
              <role>
                <coding>
                  <system value="https://fhir.hl7.org.uk/STU3/CodeSystem/CareConnect-SDSJobRoleName-1" />
                  <code value="R0260" />
                  <display value="General Medical Practitioner" />
                </coding>
              </role>
              <who>
                <reference value="https://sds.spineservices.nhs.uk/Practitioner/2ee4tr6a9" />
              </who>
              <onBehalfOf>
                <reference value="https://directory.spineservices.nhs.uk/Organization/a3e5i7" />
              </onBehalfOf>
            </agent>
          </Provenance>
        </contained>
        <extension url="https://fhir.nhs.uk/England/StructureDefinition/Extension-FlagNotes">
          <valueAnnotation>
            <text value="Example of adjustment notes extension text in adjustment flag" />
          </valueAnnotation>
        </extension>
        <status value="active" />
        <category>
          <coding>
            <system value="https://fhir.nhs.uk/England/CodeSystem/England-FlagCategoryPatient" />
            <code value="national-reasonable-adjustment-flag" />
            <display value="National Reasonable Adjustments Flag" />
          </coding>
        </category>
        <category>
          <coding>
            <system value="https://fhir.nhs.uk/England/CodeSystem/England-FlagCategoryRA" />
            <code value="bespoke-reasonable-adjustments" />
            <display value="Bespoke Reasonable adjustments" />
          </coding>
        </category>
        <code>
          <coding>
            <system value="https://snomed.info/sct" />
            <code value="73618009" />
            <display value="Autistic spectrum disorder with isolated skills" />
          </coding>
        </code>
        <subject>
          <reference value="Patient/PatientFlag-AlanMann-Example" />
        </subject>
      </Flag>
    </resource>
    <request>
      <method value="PUT" />
      <url value="Flag/RA-Flag2-Example" />
    </request>
  </entry>
</Bundle>
