<Bundle xmlns="http://hl7.org/fhir">
  <id value="contraception-service--example-1" />
  <meta>
    <lastUpdated value="2023-08-08T09:12:14.2711908+01:00" />
    <profile value="https://fhir.nhs.uk/STU3/StructureDefinition/ITK-Message-Bundle-1" />
  </meta>
  <identifier>
    <system value="https://fhir.provider.example/identifier/bundle" />
    <value value="contraception-service--example-1" />
  </identifier>
  <type value="message" />
  <entry>
    <fullUrl value="urn:uuid:8bb8867d-44e4-4ddb-9e4d-3e3c4b4631ba" />
    <resource>
      <MessageHeader>
        <id value="8bb8867d-44e4-4ddb-9e4d-3e3c4b4631ba" />
        <meta>
          <lastUpdated value="2023-08-08T09:12:14.2711908+01:00" />
          <profile value="https://fhir.nhs.uk/STU3/StructureDefinition/ITK-MessageHeader-2" />
        </meta>
        <extension url="https://fhir.nhs.uk/STU3/StructureDefinition/Extension-ITK-MessageHandling-2">
          <extension url="BusAckRequested">
            <valueBoolean value="true" />
          </extension>
          <extension url="InfAckRequested">
            <valueBoolean value="true" />
          </extension>
          <extension url="RecipientType">
            <valueCoding>
              <system value="https://fhir.nhs.uk/STU3/CodeSystem/ITK-RecipientType-1" />
              <code value="FI" />
              <display value="For Information" />
            </valueCoding>
          </extension>
          <extension url="MessageDefinition">
            <valueReference>
              <reference value="https://fhir.nhs.uk/MessageDefinition" />
            </valueReference>
          </extension>
          <extension url="SenderReference">
            <valueString value="urn:uuid:59efe993-edfb-4b57-984b-e6dc556d9b6a" />
          </extension>
          <extension url="LocalExtension">
            <valueString value="None" />
          </extension>
        </extension>
        <event>
          <system value="https://fhir.nhs.uk/STU3/CodeSystem/ITK-MessageEvent-2" />
          <code value="ITK014M" />
          <display value="ITK Update Record" />
        </event>
        <sender>
          <reference value="urn:uuid:2d0d1754-b061-45be-bc50-074b11242704" />
        </sender>
        <timestamp value="2023-08-08T09:16:40.9481718+01:00" />
        <source>
          <endpoint value="SENDER_MESH_MAILBOX_ID" />
        </source>
        <focus>
          <reference value="urn:uuid:c8aced86-ef94-4bc9-a467-62b1d5359de3" />
        </focus>
      </MessageHeader>
    </resource>
  </entry>
  <entry>
    <fullUrl value="urn:uuid:2d0d1754-b061-45be-bc50-074b11242704" />
    <resource>
      <Organization>
        <id value="2d0d1754-b061-45be-bc50-074b11242704" />
        <meta>
          <lastUpdated value="2023-08-08T09:12:14.2711908+01:00" />
          <profile value="https://fhir.nhs.uk/STU3/StructureDefinition/CareConnect-ITK-Header-Organization-1" />
        </meta>
        <identifier>
          <system value="https://fhir.nhs.uk/Id/ods-organization-code" />
          <value value="FQW30" />
        </identifier>
      </Organization>
    </resource>
  </entry>
  <entry>
    <fullUrl value="urn:uuid:c8aced86-ef94-4bc9-a467-62b1d5359de3" />
    <resource>
      <Bundle>
        <id value="c8aced86-ef94-4bc9-a467-62b1d5359de3" />
        <meta>
          <lastUpdated value="2023-08-08T09:12:14.2711908+01:00" />
          <profile value="https://fhir.nhs.uk/STU3/StructureDefinition/ITK-Document-Bundle-1" />
        </meta>
        <identifier>
          <system value="https://fhir.provider.example/identifier/bundle" />
          <value value="c8aced86-ef94-4bc9-a467-62b1d5359de3" />
        </identifier>
        <type value="document" />
        <entry>
          <fullUrl value="urn:uuid:8077f86b-3e8c-41df-90d2-a73c54cb460a" />
          <resource>
            <Composition>
              <id value="8077f86b-3e8c-41df-90d2-a73c54cb460a" />
              <meta>
                <lastUpdated value="2023-08-08T09:12:14.2711908+01:00" />
                <profile value="https://fhir.hl7.org.uk/STU3/StructureDefinition/CareConnect-Composition-1" />
              </meta>
              <identifier>
                <system value="https://fhir.provider.example/identifier/composition" />
                <value value="8077f86b-3e8c-41df-90d2-a73c54cb460a" />
              </identifier>
              <status value="final" />
              <type>
                <coding>
                  <system value="http://snomed.info/sct" />
                  <code value="1659121000000101" />
                  <display value="Community Pharmacy Contraception Service" />
                </coding>
                <text value="Community Pharmacy Contraception Service" />
              </type>
              <subject>
                <reference value="urn:uuid:3ec409f6-6dd3-4c7e-b492-180b73f2c808" />
              </subject>
              <encounter>
                <reference value="urn:uuid:59efe993-edfb-4b57-984b-e6dc556d9b6a" />
              </encounter>
              <date value="2023-08-08" />
              <author>
                <reference value="urn:uuid:40471edc-4514-4a84-8ca0-abfa5c76604b" />
              </author>
              <title value="The Dispensers - Community Pharmacy Contraception Service" />
              <section>
                <entry>
                  <reference value="urn:uuid:59efe993-edfb-4b57-984b-e6dc556d9b6a" />
                </entry>
                <entry>
                  <reference value="urn:uuid:34b98a4b-da91-40af-8d85-1a98340d5a38" />
                </entry>
                <entry>
                  <reference value="urn:uuid:40471edc-4514-4a84-8ca0-abfa5c76604b" />
                </entry>
                <entry>
                  <reference value="urn:uuid:aaeba6df-72b8-4723-8525-db2c557cc9c0" />
                </entry>
                <entry>
                  <reference value="urn:uuid:3ec409f6-6dd3-4c7e-b492-180b73f2c808" />
                </entry>
                <entry>
                  <reference value="urn:uuid:71d0ddac-874c-40f6-9f3e-113f1659ce24" />
                </entry>
                <entry>
                  <reference value="urn:uuid:8b581579-a6c5-4378-9dee-6d4b4567d2b3" />
                </entry>
                <entry>
                  <reference value="urn:uuid:551fb3b3-a594-4213-a5a2-4cc4e32630a5" />
                </entry>
                <entry>
                  <reference value="urn:uuid:376ace66-7d86-4b67-a1d4-5a27c0e5f1e4" />
                </entry>
                <entry>
                  <reference value="urn:uuid:9e1bbf34-0efb-482b-81ca-b4b54b5323a2" />
                </entry>
                <entry>
                  <reference value="urn:uuid:dbf22ebe-4fb0-4bf7-949f-1da86e56f367" />
                </entry>
                <entry>
                  <reference value="urn:uuid:32d0f223-2049-4ccc-8082-6606420df62c" />
                </entry>
              </section>
            </Composition>
          </resource>
        </entry>
        <entry>
          <fullUrl value="urn:uuid:59efe993-edfb-4b57-984b-e6dc556d9b6a" />
          <resource>
            <Encounter>
              <id value="59efe993-edfb-4b57-984b-e6dc556d9b6a" />
              <meta>
                <lastUpdated value="2023-08-08T09:12:14.2711908+01:00" />
                <profile value="https://fhir.nhs.uk/STU3/StructureDefinition/CareConnect-GPC-Encounter-1" />
              </meta>
              <extension url="https://fhir.hl7.org.uk/STU3/StructureDefinition/Extension-CareConnect-OutcomeOfAttendance-1">
                <valueCodeableConcept>
                  <coding>
                    <system value="https://fhir.hl7.org.uk/STU3/CodeSystem/CareConnect-OutcomeOfAttendance-1" />
                    <code value="1" />
                  </coding>
                  <text value="Discharged from Consultant's care (last attendance)" />
                </valueCodeableConcept>
              </extension>
              <identifier>
                <system value="https://fhir.provider.example/identifier/encounter" />
                <value value="59efe993-edfb-4b57-984b-e6dc556d9b6a" />
              </identifier>
              <status value="finished" />
              <type>
                <coding>
                  <system value="http://snomed.info/sct" />
                  <code value="307778003" />
                  <display value="Seen in primary care establishment" />
                </coding>
                <text value="Seen in primary care establishment" />
              </type>
              <subject>
                <reference value="urn:uuid:3ec409f6-6dd3-4c7e-b492-180b73f2c808" />
              </subject>
              <participant>
                <type>
                  <coding>
                    <system value="https://fhir.nhs.uk/STU3/CodeSystem/GPConnect-ParticipantType-1" />
                    <code value="REC" />
                  </coding>
                  <text value="recorder" />
                </type>
                <individual>
                  <reference value="urn:uuid:40471edc-4514-4a84-8ca0-abfa5c76604b" />
                </individual>
              </participant>
              <period>
                <start value="2023-08-08" />
              </period>
              <reason>
                <coding>
                  <system value="http://snomed.info/sct" />
                  <code value="1659121000000101" />
                  <display value="Community Pharmacy Contraception Service" />
                </coding>
                <text value="Community Pharmacy Contraception Service" />
              </reason>
              <serviceProvider>
                <reference value="urn:uuid:34b98a4b-da91-40af-8d85-1a98340d5a38" />
              </serviceProvider>
            </Encounter>
          </resource>
        </entry>
        <entry>
          <fullUrl value="urn:uuid:34b98a4b-da91-40af-8d85-1a98340d5a38" />
          <resource>
            <Organization>
              <id value="34b98a4b-da91-40af-8d85-1a98340d5a38" />
              <meta>
                <lastUpdated value="2023-08-08T09:12:14.2711908+01:00" />
                <profile value="https://fhir.nhs.uk/STU3/StructureDefinition/CareConnect-GPC-Organization-1" />
              </meta>
              <identifier>
                <system value="https://fhir.nhs.uk/Id/ods-organization-code" />
                <value value="A(*)" />
              </identifier>
              <name value="The Dispensers" />
            </Organization>
          </resource>
        </entry>
        <entry>
          <fullUrl value="urn:uuid:40471edc-4514-4a84-8ca0-abfa5c76604b" />
          <resource>
            <Practitioner>
              <id value="40471edc-4514-4a84-8ca0-abfa5c76604b" />
              <meta>
                <lastUpdated value="2023-08-08T09:12:14.2711908+01:00" />
                <profile value="https://fhir.nhs.uk/STU3/StructureDefinition/CareConnect-GPC-Practitioner-1" />
              </meta>
              <identifier>
                <system value="https://fhir.provider.example/identifier/staff" />
                <value value="40471edc-4514-4a84-8ca0-abfa5c76604b" />
              </identifier>
              <identifier>
                <system value="https://fhir.hl7.org.uk/Id/gphc-number" />
                <value value="NNNNNNN" />
              </identifier>
              <name>
                <family value="Kai-Shun" />
                <given value="Medi" />
                <prefix value="Dr" />
              </name>
            </Practitioner>
          </resource>
        </entry>
        <entry>
          <fullUrl value="urn:uuid:aaeba6df-72b8-4723-8525-db2c557cc9c0" />
          <resource>
            <PractitionerRole>
              <id value="aaeba6df-72b8-4723-8525-db2c557cc9c0" />
              <meta>
                <lastUpdated value="2023-08-08T09:12:14.2711908+01:00" />
                <profile value="https://fhir.nhs.uk/STU3/StructureDefinition/CareConnect-GPC-PractitionerRole-1" />
              </meta>
              <practitioner>
                <reference value="urn:uuid:40471edc-4514-4a84-8ca0-abfa5c76604b" />
              </practitioner>
              <organization>
                <reference value="urn:uuid:34b98a4b-da91-40af-8d85-1a98340d5a38" />
              </organization>
              <code>
                <coding>
                  <system value="https://fhir.nhs.uk/STU3/CodeSystem/CareConnect-SDSJobRoleName-1" />
                  <code value="R1290" />
                  <display value="Pharmacist" />
                </coding>
                <text value="Pharmacist" />
              </code>
            </PractitionerRole>
          </resource>
        </entry>
        <entry>
          <fullUrl value="urn:uuid:3ec409f6-6dd3-4c7e-b492-180b73f2c808" />
          <resource>
            <Patient>
              <id value="3ec409f6-6dd3-4c7e-b492-180b73f2c808" />
              <meta>
                <lastUpdated value="2023-08-08T09:12:14.2711908+01:00" />
                <profile value="https://fhir.nhs.uk/STU3/StructureDefinition/CareConnect-GPC-Patient-1" />
              </meta>
              <identifier>
                <extension url="https://fhir.nhs.uk/STU3/StructureDefinition/Extension-CareConnect-GPC-NHSNumberVerificationStatus-1">
                  <valueCodeableConcept>
                    <coding>
                      <system value="https://fhir.nhs.uk/STU3/CodeSystem/CareConnect-NHSNumberVerificationStatus-1" />
                      <code value="01" />
                      <display value="Number present and verified" />
                    </coding>
                    <text value="Number present and verified" />
                  </valueCodeableConcept>
                </extension>
                <system value="https://fhir.nhs.uk/Id/nhs-number" />
                <value value="4857773456" />
              </identifier>
              <identifier>
                <system value="https://fhir.provider.example/identifier/patient" />
                <value value="3ec409f6-6dd3-4c7e-b492-180b73f2c808" />
              </identifier>
              <name>
                <use value="official" />
                <family value="MOWERS" />
                <given value="Lorna" />
              </name>
              <gender value="female" />
              <birthDate value="1971-08-08" />
              <address>
                <postalCode value="LWN 1" />
              </address>
            </Patient>
          </resource>
        </entry>
        <entry>
          <fullUrl value="urn:uuid:71d0ddac-874c-40f6-9f3e-113f1659ce24" />
          <resource>
            <Observation>
              <id value="71d0ddac-874c-40f6-9f3e-113f1659ce24" />
              <meta>
                <lastUpdated value="2023-08-08T09:12:14.2711908+01:00" />
                <profile value="https://fhir.nhs.uk/STU3/StructureDefinition/CareConnect-GPC-Observation-1" />
              </meta>
              <identifier>
                <system value="https://fhir.provider.example/identifier/observation" />
                <value value="71d0ddac-874c-40f6-9f3e-113f1659ce24" />
              </identifier>
              <status value="final" />
              <category>
                <coding>
                  <system value="http://terminology.hl7.org/CodeSystem/observation-category" />
                  <code value="vital-signs" />
                  <display value="Vital Signs" />
                </coding>
                <text value="Vital Signs" />
              </category>
              <code>
                <coding>
                  <system value="http://snomed.info/sct" />
                  <code value="163034007" />
                  <display value="Standing blood pressure reading" />
                </coding>
                <text value="Standing blood pressure reading" />
              </code>
              <subject>
                <reference value="urn:uuid:3ec409f6-6dd3-4c7e-b492-180b73f2c808" />
              </subject>
              <context>
                <reference value="urn:uuid:59efe993-edfb-4b57-984b-e6dc556d9b6a" />
              </context>
              <effectiveDateTime value="2023-08-08" />
              <issued value="2023-08-08T09:16:40.9843158+01:00" />
              <performer>
                <reference value="urn:uuid:40471edc-4514-4a84-8ca0-abfa5c76604b" />
              </performer>
              <bodySite>
                <coding>
                  <system value="http://snomed.info/sct" />
                  <code value="368208006" />
                  <display value="Left upper arm structure" />
                </coding>
                <text value="Left upper arm structure" />
              </bodySite>
              <component>
                <code>
                  <coding>
                    <system value="http://snomed.info/sct" />
                    <code value="400974009" />
                    <display value="Standing systolic blood pressure" />
                  </coding>
                  <text value="Standing systolic blood pressure" />
                </code>
                <valueQuantity>
                  <value value="120" />
                  <unit value="millimeter of mercury" />
                  <system value="http://unitsofmeasure.org" />
                  <code value="mm[Hg]" />
                </valueQuantity>
              </component>
              <component>
                <code>
                  <coding>
                    <system value="http://snomed.info/sct" />
                    <code value="400975005" />
                    <display value="Standing diastolic blood pressure" />
                  </coding>
                  <text value="Standing diastolic blood pressure" />
                </code>
                <valueQuantity>
                  <value value="78" />
                  <unit value="millimeter of mercury" />
                  <system value="http://unitsofmeasure.org" />
                  <code value="mm[Hg]" />
                </valueQuantity>
              </component>
            </Observation>
          </resource>
        </entry>
        <entry>
          <fullUrl value="urn:uuid:8b581579-a6c5-4378-9dee-6d4b4567d2b3" />
          <resource>
            <Observation>
              <id value="8b581579-a6c5-4378-9dee-6d4b4567d2b3" />
              <meta>
                <lastUpdated value="2023-08-08T09:12:14.2711908+01:00" />
                <profile value="https://fhir.nhs.uk/STU3/StructureDefinition/CareConnect-GPC-Observation-1" />
              </meta>
              <identifier>
                <system value="https://fhir.provider.example/identifier/observation" />
                <value value="8b581579-a6c5-4378-9dee-6d4b4567d2b3" />
              </identifier>
              <status value="final" />
              <category>
                <coding>
                  <system value="http://terminology.hl7.org/CodeSystem/observation-category" />
                  <code value="vital-signs" />
                  <display value="Vital Signs" />
                </coding>
                <text value="Vital Signs" />
              </category>
              <code>
                <coding>
                  <system value="http://snomed.info/sct" />
                  <code value="50373000" />
                  <display value="Body height measure" />
                </coding>
                <text value="Body height measure" />
              </code>
              <subject>
                <reference value="urn:uuid:3ec409f6-6dd3-4c7e-b492-180b73f2c808" />
              </subject>
              <context>
                <reference value="urn:uuid:59efe993-edfb-4b57-984b-e6dc556d9b6a" />
              </context>
              <effectiveDateTime value="2023-08-08" />
              <issued value="2023-08-08T09:16:40.9866285+01:00" />
              <performer>
                <reference value="urn:uuid:40471edc-4514-4a84-8ca0-abfa5c76604b" />
              </performer>
              <valueQuantity>
                <value value="162.56" />
                <unit value="centimeter" />
                <system value="http://unitsofmeasure.org" />
                <code value="cm" />
              </valueQuantity>
            </Observation>
          </resource>
        </entry>
        <entry>
          <fullUrl value="urn:uuid:551fb3b3-a594-4213-a5a2-4cc4e32630a5" />
          <resource>
            <Observation>
              <id value="551fb3b3-a594-4213-a5a2-4cc4e32630a5" />
              <meta>
                <lastUpdated value="2023-08-08T09:12:14.2711908+01:00" />
                <profile value="https://fhir.nhs.uk/STU3/StructureDefinition/CareConnect-GPC-Observation-1" />
              </meta>
              <identifier>
                <system value="https://fhir.provider.example/identifier/observation" />
                <value value="551fb3b3-a594-4213-a5a2-4cc4e32630a5" />
              </identifier>
              <status value="final" />
              <category>
                <coding>
                  <system value="http://terminology.hl7.org/CodeSystem/observation-category" />
                  <code value="vital-signs" />
                  <display value="Vital Signs" />
                </coding>
                <text value="Vital Signs" />
              </category>
              <code>
                <coding>
                  <system value="http://snomed.info/sct" />
                  <code value="27113001" />
                  <display value="Body weight" />
                </coding>
                <text value="Body weight" />
              </code>
              <subject>
                <reference value="urn:uuid:3ec409f6-6dd3-4c7e-b492-180b73f2c808" />
              </subject>
              <context>
                <reference value="urn:uuid:59efe993-edfb-4b57-984b-e6dc556d9b6a" />
              </context>
              <effectiveDateTime value="2023-08-08" />
              <issued value="2023-08-08T09:16:40.98672+01:00" />
              <performer>
                <reference value="urn:uuid:40471edc-4514-4a84-8ca0-abfa5c76604b" />
              </performer>
              <valueQuantity>
                <value value="64" />
                <unit value="kilogram" />
                <system value="http://unitsofmeasure.org" />
                <code value="kg" />
              </valueQuantity>
            </Observation>
          </resource>
        </entry>
        <entry>
          <fullUrl value="urn:uuid:376ace66-7d86-4b67-a1d4-5a27c0e5f1e4" />
          <resource>
            <Observation>
              <id value="376ace66-7d86-4b67-a1d4-5a27c0e5f1e4" />
              <meta>
                <lastUpdated value="2023-08-08T09:12:14.2711908+01:00" />
                <profile value="https://fhir.nhs.uk/STU3/StructureDefinition/CareConnect-GPC-Observation-1" />
              </meta>
              <identifier>
                <system value="https://fhir.provider.example/identifier/observation" />
                <value value="376ace66-7d86-4b67-a1d4-5a27c0e5f1e4" />
              </identifier>
              <status value="final" />
              <category>
                <coding>
                  <system value="http://terminology.hl7.org/CodeSystem/observation-category" />
                  <code value="vital-signs" />
                  <display value="Vital Signs" />
                </coding>
                <text value="Vital Signs" />
              </category>
              <code>
                <coding>
                  <system value="http://snomed.info/sct" />
                  <code value="60621009" />
                  <display value="Body mass index" />
                </coding>
                <text value="Body mass index" />
              </code>
              <subject>
                <reference value="urn:uuid:3ec409f6-6dd3-4c7e-b492-180b73f2c808" />
              </subject>
              <context>
                <reference value="urn:uuid:59efe993-edfb-4b57-984b-e6dc556d9b6a" />
              </context>
              <effectiveDateTime value="2023-08-08" />
              <issued value="2023-08-08T09:16:40.9867255+01:00" />
              <performer>
                <reference value="urn:uuid:40471edc-4514-4a84-8ca0-abfa5c76604b" />
              </performer>
              <valueQuantity>
                <value value="24" />
                <unit value="kilogram per square meter" />
                <system value="http://unitsofmeasure.org" />
                <code value="kg/m2" />
              </valueQuantity>
            </Observation>
          </resource>
        </entry>
        <entry>
          <fullUrl value="urn:uuid:9e1bbf34-0efb-482b-81ca-b4b54b5323a2" />
          <resource>
            <Observation>
              <id value="9e1bbf34-0efb-482b-81ca-b4b54b5323a2" />
              <meta>
                <lastUpdated value="2023-08-08T09:12:14.2711908+01:00" />
                <profile value="https://fhir.nhs.uk/STU3/StructureDefinition/CareConnect-GPC-Observation-1" />
                <tag>
                  <system value="https://fhir.nhs.uk/CodeSystem/RecordStandardHeadings" />
                  <code value="pregnancy-status" />
                  <display value="Pregnancy status" />
                </tag>
              </meta>
              <identifier>
                <system value="https://fhir.provider.example/identifier/observation" />
                <value value="9e1bbf34-0efb-482b-81ca-b4b54b5323a2" />
              </identifier>
              <status value="final" />
              <category>
                <coding>
                  <system value="http://terminology.hl7.org/CodeSystem/observation-category" />
                  <code value="social-history" />
                  <display value="Social History" />
                </coding>
                <text value="Social History" />
              </category>
              <code>
                <coding>
                  <system value="http://snomed.info/sct" />
                  <code value="60001007" />
                  <display value="Not pregnant" />
                </coding>
                <text value="Not pregnant" />
              </code>
              <subject>
                <reference value="urn:uuid:3ec409f6-6dd3-4c7e-b492-180b73f2c808" />
              </subject>
              <context>
                <reference value="urn:uuid:59efe993-edfb-4b57-984b-e6dc556d9b6a" />
              </context>
              <effectiveDateTime value="2023-08-08" />
              <issued value="2023-08-08T09:16:40.9868328+01:00" />
              <performer>
                <reference value="urn:uuid:40471edc-4514-4a84-8ca0-abfa5c76604b" />
              </performer>
            </Observation>
          </resource>
        </entry>
        <entry>
          <fullUrl value="urn:uuid:dbf22ebe-4fb0-4bf7-949f-1da86e56f367" />
          <resource>
            <MedicationDispense>
              <id value="dbf22ebe-4fb0-4bf7-949f-1da86e56f367" />
              <meta>
                <lastUpdated value="2023-08-08T09:12:14.2711908+01:00" />
                <profile value="https://fhir.nhs.uk/STU3/StructureDefinition/CareConnect-GPC-MedicationDispense-1" />
              </meta>
              <identifier>
                <system value="https://fhir.provider.example/identifier/medication-dispense" />
                <value value="dbf22ebe-4fb0-4bf7-949f-1da86e56f367" />
              </identifier>
              <status value="completed" />
              <category>
                <coding>
                  <system value="http://hl7.org/fhir/medication-dispense-category" />
                  <code value="community" />
                  <display value="Community" />
                </coding>
                <text value="Community" />
              </category>
              <medicationCodeableConcept>
                <coding>
                  <system value="https://dmd.nhs.uk" />
                  <code value="17346711000001106" />
                  <display value="Rigevidon tablets (Gedeon Richter (UK) Ltd)" />
                </coding>
                <text value="Rigevidon tablets (Gedeon Richter (UK) Ltd)" />
              </medicationCodeableConcept>
              <subject>
                <reference value="urn:uuid:3ec409f6-6dd3-4c7e-b492-180b73f2c808" />
              </subject>
              <context>
                <reference value="urn:uuid:59efe993-edfb-4b57-984b-e6dc556d9b6a" />
              </context>
              <performer>
                <actor>
                  <reference value="urn:uuid:40471edc-4514-4a84-8ca0-abfa5c76604b" />
                </actor>
              </performer>
              <type>
                <coding>
                  <system value="https://fhir.hl7.org.uk/STU3/CodeSystem/CareConnect-MedicationSupplyType-1" />
                  <code value="prescription-dispensing" />
                  <display value="Prescription dispensing" />
                </coding>
                <text value="Prescription dispensing" />
              </type>
              <quantity>
                <value value="252" />
                <unit value="Tablet" />
                <system value="http://snomed.info/sct" />
                <code value="428673006" />
              </quantity>
              <daysSupply>
                <value value="252" />
                <unit value="day" />
                <system value="http://unitsofmeasure.org" />
                <code value="d" />
              </daysSupply>
              <whenPrepared value="2023-08-08" />
              <whenHandedOver value="2023-08-08" />
              <dosageInstruction>
                <text value="One tablet is to be taken daily for 21 consecutive days starting day 1 of menstrual cycle. Do not take the tablets between day 22 to day 28." />
                <patientInstruction value="One tablet is to be taken daily for 21 consecutive days starting day 1 of menstrual cycle. Do not take the tablets between day 22 to day 28." />
                <timing>
                  <repeat>
                    <frequency value="1" />
                    <period value="1" />
                    <periodUnit value="d" />
                  </repeat>
                </timing>
                <route>
                  <coding>
                    <system value="http://snomed.info/sct" />
                    <code value="26643006" />
                    <display value="Oral route" />
                  </coding>
                  <text value="Oral route" />
                </route>
                <maxDosePerPeriod>
                  <numerator>
                    <value value="21" />
                    <unit value="Tablet" />
                    <system value="http://snomed.info/sct" />
                    <code value="428673006" />
                  </numerator>
                  <denominator>
                    <value value="28" />
                    <unit value="day" />
                    <system value="http://unitsofmeasure.org" />
                    <code value="d" />
                  </denominator>
                </maxDosePerPeriod>
              </dosageInstruction>
            </MedicationDispense>
          </resource>
        </entry>
        <entry>
          <fullUrl value="urn:uuid:32d0f223-2049-4ccc-8082-6606420df62c" />
          <resource>
            <ClinicalImpression>
              <id value="32d0f223-2049-4ccc-8082-6606420df62c" />
              <meta>
                <profile value="https://fhir.nhs.uk/STU3/StructureDefinition/CareConnect-GPC-ClinicalImpression-1" />
                <tag>
                  <system value="https://fhir.nhs.uk/CodeSystem/RecordStandardHeadings" />
                  <code value="clinical-summary" />
                  <display value="Clinical summary" />
                </tag>
              </meta>
              <identifier>
                <system value="https://fhir.provider.example/identifier/clinical-impression" />
                <value value="32d0f223-2049-4ccc-8082-6606420df62c" />
              </identifier>
              <status value="completed" />
              <subject>
                <reference value="urn:uuid:3ec409f6-6dd3-4c7e-b492-180b73f2c808" />
              </subject>
              <context>
                <reference value="urn:uuid:59efe993-edfb-4b57-984b-e6dc556d9b6a" />
              </context>
              <date value="2023-08-08" />
              <assessor>
                <reference value="urn:uuid:40471edc-4514-4a84-8ca0-abfa5c76604b" />
              </assessor>
              <summary value="The patient has been using oral contraception and it works well. Walked in the pharmacy for ongoing supply." />
            </ClinicalImpression>
          </resource>
        </entry>
      </Bundle>
    </resource>
  </entry>
</Bundle>