<Bundle xmlns="http://hl7.org/fhir">
  <id value="minor-illness-common-conditions-service--example-1" />
  <meta>
    <lastUpdated value="2023-08-08T09:12:14.2711908+01:00" />
    <profile value="https://fhir.nhs.uk/STU3/StructureDefinition/ITK-Message-Bundle-1" />
  </meta>
  <identifier>
    <system value="https://fhir.provider.example/identifier/bundle" />
    <value value="minor-illness-common-conditions-service--example-1" />
  </identifier>
  <type value="message" />
  <entry>
    <fullUrl value="urn:uuid:108805b4-32df-464d-a0a6-11c37afd74f2" />
    <resource>
      <MessageHeader>
        <id value="108805b4-32df-464d-a0a6-11c37afd74f2" />
        <meta>
          <lastUpdated value="2023-08-08T09:12:14.2711908+01:00" />
          <profile value="https://fhir.nhs.uk/STU3/StructureDefinition/ITK-MessageHeader-2" />
        </meta>
        <extension url="https://fhir.nhs.uk/STU3/StructureDefinition/Extension-ITK-MessageHandling-2">
          <extension url="BusAckRequested">
            <valueBoolean value="true" />
          </extension>
          <extension url="InfAckRequested">
            <valueBoolean value="true" />
          </extension>
          <extension url="RecipientType">
            <valueCoding>
              <system value="https://fhir.nhs.uk/STU3/CodeSystem/ITK-RecipientType-1" />
              <code value="FI" />
              <display value="For Information" />
            </valueCoding>
          </extension>
          <extension url="MessageDefinition">
            <valueReference>
              <reference value="https://fhir.nhs.uk/MessageDefinition" />
            </valueReference>
          </extension>
          <extension url="SenderReference">
            <valueString value="urn:uuid:1cd20c60-4407-4e7d-8572-82db1b125eaf" />
          </extension>
          <extension url="LocalExtension">
            <valueString value="None" />
          </extension>
        </extension>
        <event>
          <system value="https://fhir.nhs.uk/STU3/CodeSystem/ITK-MessageEvent-2" />
          <code value="ITK014M" />
          <display value="ITK Update Record" />
        </event>
        <sender>
          <reference value="urn:uuid:a4e4fb3d-cc1f-42af-b864-949febf79937" />
        </sender>
        <timestamp value="2023-08-08T09:19:16.9316747+01:00" />
        <source>
          <endpoint value="SENDER_MESH_MAILBOX_ID" />
        </source>
        <focus>
          <reference value="urn:uuid:aa7f9697-1a1e-41ee-9c62-cbaa68b35189" />
        </focus>
      </MessageHeader>
    </resource>
  </entry>
  <entry>
    <fullUrl value="urn:uuid:a4e4fb3d-cc1f-42af-b864-949febf79937" />
    <resource>
      <Organization>
        <id value="a4e4fb3d-cc1f-42af-b864-949febf79937" />
        <meta>
          <lastUpdated value="2023-08-08T09:12:14.2711908+01:00" />
          <profile value="https://fhir.nhs.uk/STU3/StructureDefinition/CareConnect-ITK-Header-Organization-1" />
        </meta>
        <identifier>
          <system value="https://fhir.nhs.uk/Id/ods-organization-code" />
          <value value="FQW30" />
        </identifier>
      </Organization>
    </resource>
  </entry>
  <entry>
    <fullUrl value="urn:uuid:aa7f9697-1a1e-41ee-9c62-cbaa68b35189" />
    <resource>
      <Bundle>
        <id value="aa7f9697-1a1e-41ee-9c62-cbaa68b35189" />
        <meta>
          <lastUpdated value="2023-08-08T09:12:14.2711908+01:00" />
          <profile value="https://fhir.nhs.uk/STU3/StructureDefinition/ITK-Document-Bundle-1" />
        </meta>
        <identifier>
          <system value="https://fhir.provider.example/identifier/bundle" />
          <value value="aa7f9697-1a1e-41ee-9c62-cbaa68b35189" />
        </identifier>
        <type value="document" />
        <entry>
          <fullUrl value="urn:uuid:bcfaf661-8353-4043-a41a-4e31af16465e" />
          <resource>
            <Composition>
              <id value="bcfaf661-8353-4043-a41a-4e31af16465e" />
              <meta>
                <lastUpdated value="2023-08-08T09:12:14.2711908+01:00" />
                <profile value="https://fhir.hl7.org.uk/STU3/StructureDefinition/CareConnect-Composition-1" />
              </meta>
              <identifier>
                <system value="https://fhir.provider.example/identifier/composition" />
                <value value="bcfaf661-8353-4043-a41a-4e31af16465e" />
              </identifier>
              <status value="final" />
              <type>
                <coding>
                  <system value="http://snomed.info/sct" />
                  <code value="1577041000000109" />
                  <display value="Community Pharmacist Consultation Service for minor illness" />
                </coding>
                <text value="Community Pharmacist Consultation Service for minor illness" />
              </type>
              <subject>
                <reference value="urn:uuid:45b79f14-8a6d-48e9-9ec7-642dd7592e92" />
              </subject>
              <encounter>
                <reference value="urn:uuid:1cd20c60-4407-4e7d-8572-82db1b125eaf" />
              </encounter>
              <date value="2023-08-08" />
              <author>
                <reference value="urn:uuid:7e0325f4-8340-42cc-b2d8-997f703d0bea" />
              </author>
              <title value="The Dispensers - Community Pharmacist Consultation Service for minor illness" />
              <section>
                <entry>
                  <reference value="urn:uuid:1cd20c60-4407-4e7d-8572-82db1b125eaf" />
                </entry>
                <entry>
                  <reference value="urn:uuid:938afe97-b2e2-4c25-a466-cd4e87a1ab32" />
                </entry>
                <entry>
                  <reference value="urn:uuid:7e0325f4-8340-42cc-b2d8-997f703d0bea" />
                </entry>
                <entry>
                  <reference value="urn:uuid:135dab31-d216-4882-b976-08d748c03b14" />
                </entry>
                <entry>
                  <reference value="urn:uuid:45b79f14-8a6d-48e9-9ec7-642dd7592e92" />
                </entry>
                <entry>
                  <reference value="urn:uuid:f939f898-16df-4a04-a38f-42eba3e2ae70" />
                </entry>
                <entry>
                  <reference value="urn:uuid:cc364f0a-fa44-4ad4-9280-9c0b7bb9b28a" />
                </entry>
                <entry>
                  <reference value="urn:uuid:a49ead6d-cb6a-437e-b216-5529f2d5f195" />
                </entry>
                <entry>
                  <reference value="urn:uuid:6e371772-8a9b-4bfc-b3f4-eed3e15dcf05" />
                </entry>
                <entry>
                  <reference value="urn:uuid:c1a0cc27-c003-45fe-9042-7a36a93003c9" />
                </entry>
                <entry>
                  <reference value="urn:uuid:1b4a9a85-8084-4dcf-b6ac-c60b48a9ddcf" />
                </entry>
                <entry>
                  <reference value="urn:uuid:7671cc7e-9b99-4ffa-9ac6-1b634a2c91cc" />
                </entry>
                <entry>
                  <reference value="urn:uuid:7671cc7e-9b99-4ffa-9ac6-1b634a2c91cc" />
                </entry>
                <entry>
                  <reference value="urn:uuid:f55997bb-ff2c-43a4-b38e-7f8f68f43a25" />
                </entry>
              </section>
            </Composition>
          </resource>
        </entry>
        <entry>
          <fullUrl value="urn:uuid:1cd20c60-4407-4e7d-8572-82db1b125eaf" />
          <resource>
            <Encounter>
              <id value="1cd20c60-4407-4e7d-8572-82db1b125eaf" />
              <meta>
                <lastUpdated value="2023-08-08T09:12:14.2711908+01:00" />
                <profile value="https://fhir.nhs.uk/STU3/StructureDefinition/CareConnect-GPC-Encounter-1" />
              </meta>
              <extension url="https://fhir.hl7.org.uk/STU3/StructureDefinition/Extension-CareConnect-OutcomeOfAttendance-1">
                <valueCodeableConcept>
                  <coding>
                    <system value="https://fhir.hl7.org.uk/STU3/CodeSystem/CareConnect-OutcomeOfAttendance-1" />
                    <code value="1" />
                  </coding>
                  <text value="Discharged from Consultant's care (last attendance)" />
                </valueCodeableConcept>
              </extension>
              <identifier>
                <system value="https://fhir.provider.example/identifier/encounter" />
                <value value="1cd20c60-4407-4e7d-8572-82db1b125eaf" />
              </identifier>
              <status value="finished" />
              <type>
                <coding>
                  <system value="http://snomed.info/sct" />
                  <code value="307778003" />
                  <display value="Seen in primary care establishment" />
                </coding>
                <text value="Seen in primary care establishment" />
              </type>
              <subject>
                <reference value="urn:uuid:45b79f14-8a6d-48e9-9ec7-642dd7592e92" />
              </subject>
              <participant>
                <type>
                  <coding>
                    <system value="https://fhir.nhs.uk/STU3/CodeSystem/GPConnect-ParticipantType-1" />
                    <code value="REC" />
                  </coding>
                  <text value="recorder" />
                </type>
                <individual>
                  <reference value="urn:uuid:7e0325f4-8340-42cc-b2d8-997f703d0bea" />
                </individual>
              </participant>
              <period>
                <start value="2023-08-08" />
              </period>
              <reason>
                <coding>
                  <system value="http://snomed.info/sct" />
                  <code value="1577041000000109" />
                  <display value="Community Pharmacist Consultation Service for minor illness" />
                </coding>
                <text value="Community Pharmacist Consultation Service for minor illness" />
              </reason>
              <serviceProvider>
                <reference value="urn:uuid:938afe97-b2e2-4c25-a466-cd4e87a1ab32" />
              </serviceProvider>
            </Encounter>
          </resource>
        </entry>
        <entry>
          <fullUrl value="urn:uuid:938afe97-b2e2-4c25-a466-cd4e87a1ab32" />
          <resource>
            <Organization>
              <id value="938afe97-b2e2-4c25-a466-cd4e87a1ab32" />
              <meta>
                <lastUpdated value="2023-08-08T09:12:14.2711908+01:00" />
                <profile value="https://fhir.nhs.uk/STU3/StructureDefinition/CareConnect-GPC-Organization-1" />
              </meta>
              <identifier>
                <system value="https://fhir.nhs.uk/Id/ods-organization-code" />
                <value value="A(*)" />
              </identifier>
              <name value="The Dispensers" />
            </Organization>
          </resource>
        </entry>
        <entry>
          <fullUrl value="urn:uuid:7e0325f4-8340-42cc-b2d8-997f703d0bea" />
          <resource>
            <Practitioner>
              <id value="7e0325f4-8340-42cc-b2d8-997f703d0bea" />
              <meta>
                <lastUpdated value="2023-08-08T09:12:14.2711908+01:00" />
                <profile value="https://fhir.nhs.uk/STU3/StructureDefinition/CareConnect-GPC-Practitioner-1" />
              </meta>
              <identifier>
                <system value="https://fhir.provider.example/identifier/staff" />
                <value value="7e0325f4-8340-42cc-b2d8-997f703d0bea" />
              </identifier>
              <identifier>
                <system value="https://fhir.hl7.org.uk/Id/gphc-number" />
                <value value="NNNNNNN" />
              </identifier>
              <name>
                <family value="Kai-Shun" />
                <given value="Medi" />
                <prefix value="Dr" />
              </name>
            </Practitioner>
          </resource>
        </entry>
        <entry>
          <fullUrl value="urn:uuid:135dab31-d216-4882-b976-08d748c03b14" />
          <resource>
            <PractitionerRole>
              <id value="135dab31-d216-4882-b976-08d748c03b14" />
              <meta>
                <lastUpdated value="2023-08-08T09:12:14.2711908+01:00" />
                <profile value="https://fhir.nhs.uk/STU3/StructureDefinition/CareConnect-GPC-PractitionerRole-1" />
              </meta>
              <practitioner>
                <reference value="urn:uuid:7e0325f4-8340-42cc-b2d8-997f703d0bea" />
              </practitioner>
              <organization>
                <reference value="urn:uuid:938afe97-b2e2-4c25-a466-cd4e87a1ab32" />
              </organization>
              <code>
                <coding>
                  <system value="https://fhir.nhs.uk/STU3/CodeSystem/CareConnect-SDSJobRoleName-1" />
                  <code value="R1290" />
                  <display value="Pharmacist" />
                </coding>
                <text value="Pharmacist" />
              </code>
            </PractitionerRole>
          </resource>
        </entry>
        <entry>
          <fullUrl value="urn:uuid:45b79f14-8a6d-48e9-9ec7-642dd7592e92" />
          <resource>
            <Patient>
              <id value="45b79f14-8a6d-48e9-9ec7-642dd7592e92" />
              <meta>
                <lastUpdated value="2023-08-08T09:12:14.2711908+01:00" />
                <profile value="https://fhir.nhs.uk/STU3/StructureDefinition/CareConnect-GPC-Patient-1" />
              </meta>
              <identifier>
                <extension url="https://fhir.nhs.uk/STU3/StructureDefinition/Extension-CareConnect-GPC-NHSNumberVerificationStatus-1">
                  <valueCodeableConcept>
                    <coding>
                      <system value="https://fhir.nhs.uk/STU3/CodeSystem/CareConnect-NHSNumberVerificationStatus-1" />
                      <code value="01" />
                      <display value="Number present and verified" />
                    </coding>
                    <text value="Number present and verified" />
                  </valueCodeableConcept>
                </extension>
                <system value="https://fhir.nhs.uk/Id/nhs-number" />
                <value value="4857773456" />
              </identifier>
              <identifier>
                <system value="https://fhir.provider.example/identifier/patient" />
                <value value="45b79f14-8a6d-48e9-9ec7-642dd7592e92" />
              </identifier>
              <name>
                <use value="official" />
                <family value="PACKET" />
                <given value="Chris" />
              </name>
              <gender value="male" />
              <birthDate value="1977-08-08" />
              <address>
                <postalCode value="P0T 4T0" />
              </address>
            </Patient>
          </resource>
        </entry>
        <entry>
          <fullUrl value="urn:uuid:f939f898-16df-4a04-a38f-42eba3e2ae70" />
          <resource>
            <Observation>
              <id value="f939f898-16df-4a04-a38f-42eba3e2ae70" />
              <meta>
                <lastUpdated value="2023-08-08T09:12:14.2711908+01:00" />
                <profile value="https://fhir.nhs.uk/STU3/StructureDefinition/CareConnect-GPC-Observation-1" />
              </meta>
              <identifier>
                <system value="https://fhir.provider.example/identifier/observation" />
                <value value="f939f898-16df-4a04-a38f-42eba3e2ae70" />
              </identifier>
              <status value="final" />
              <category>
                <coding>
                  <system value="http://terminology.hl7.org/CodeSystem/observation-category" />
                  <code value="vital-signs" />
                  <display value="Vital Signs" />
                </coding>
                <text value="Vital Signs" />
              </category>
              <code>
                <coding>
                  <system value="http://snomed.info/sct" />
                  <code value="703421000" />
                  <display value="Temperature" />
                </coding>
                <text value="Temperature" />
              </code>
              <subject>
                <reference value="urn:uuid:45b79f14-8a6d-48e9-9ec7-642dd7592e92" />
              </subject>
              <context>
                <reference value="urn:uuid:1cd20c60-4407-4e7d-8572-82db1b125eaf" />
              </context>
              <effectiveDateTime value="2023-08-08" />
              <issued value="2023-08-08T09:19:16.9641256+01:00" />
              <performer>
                <reference value="urn:uuid:7e0325f4-8340-42cc-b2d8-997f703d0bea" />
              </performer>
              <valueQuantity>
                <value value="37.4" />
                <unit value="degree Celsius" />
                <system value="http://unitsofmeasure.org" />
                <code value="Cel" />
              </valueQuantity>
            </Observation>
          </resource>
        </entry>
        <entry>
          <fullUrl value="urn:uuid:cc364f0a-fa44-4ad4-9280-9c0b7bb9b28a" />
          <resource>
            <Observation>
              <id value="cc364f0a-fa44-4ad4-9280-9c0b7bb9b28a" />
              <meta>
                <lastUpdated value="2023-08-08T09:12:14.2711908+01:00" />
                <profile value="https://fhir.nhs.uk/STU3/StructureDefinition/CareConnect-GPC-Observation-1" />
              </meta>
              <identifier>
                <system value="https://fhir.provider.example/identifier/observation" />
                <value value="cc364f0a-fa44-4ad4-9280-9c0b7bb9b28a" />
              </identifier>
              <status value="final" />
              <category>
                <coding>
                  <system value="http://terminology.hl7.org/CodeSystem/observation-category" />
                  <code value="vital-signs" />
                  <display value="Vital Signs" />
                </coding>
                <text value="Vital Signs" />
              </category>
              <code>
                <coding>
                  <system value="http://snomed.info/sct" />
                  <code value="75367002" />
                  <display value="Blood pressure" />
                </coding>
                <text value="Average blood pressure" />
              </code>
              <subject>
                <reference value="urn:uuid:45b79f14-8a6d-48e9-9ec7-642dd7592e92" />
              </subject>
              <context>
                <reference value="urn:uuid:1cd20c60-4407-4e7d-8572-82db1b125eaf" />
              </context>
              <effectiveDateTime value="2023-08-08" />
              <issued value="2023-08-08T09:19:16.9655424+01:00" />
              <performer>
                <reference value="urn:uuid:7e0325f4-8340-42cc-b2d8-997f703d0bea" />
              </performer>
              <bodySite>
                <coding>
                  <system value="http://snomed.info/sct" />
                  <code value="368208006" />
                  <display value="Left upper arm structure" />
                </coding>
                <text value="Left upper arm structure" />
              </bodySite>
              <component>
                <code>
                  <coding>
                    <system value="http://snomed.info/sct" />
                    <code value="72313002" />
                    <display value="Systolic arterial pressure" />
                  </coding>
                  <text value="Systolic arterial pressure" />
                </code>
                <valueQuantity>
                  <value value="118" />
                  <unit value="millimeter of mercury" />
                  <system value="http://unitsofmeasure.org" />
                  <code value="mm[Hg]" />
                </valueQuantity>
              </component>
              <component>
                <code>
                  <coding>
                    <system value="http://snomed.info/sct" />
                    <code value="1091811000000102" />
                    <display value="Diastolic arterial pressure" />
                  </coding>
                  <text value="Diastolic arterial pressure" />
                </code>
                <valueQuantity>
                  <value value="73" />
                  <unit value="millimeter of mercury" />
                  <system value="http://unitsofmeasure.org" />
                  <code value="mm[Hg]" />
                </valueQuantity>
              </component>
            </Observation>
          </resource>
        </entry>
        <entry>
          <fullUrl value="urn:uuid:a49ead6d-cb6a-437e-b216-5529f2d5f195" />
          <resource>
            <Observation>
              <id value="a49ead6d-cb6a-437e-b216-5529f2d5f195" />
              <meta>
                <lastUpdated value="2023-08-08T09:12:14.2711908+01:00" />
                <profile value="https://fhir.nhs.uk/STU3/StructureDefinition/CareConnect-GPC-Observation-1" />
              </meta>
              <identifier>
                <system value="https://fhir.provider.example/identifier/observation" />
                <value value="a49ead6d-cb6a-437e-b216-5529f2d5f195" />
              </identifier>
              <status value="final" />
              <category>
                <coding>
                  <system value="http://terminology.hl7.org/CodeSystem/observation-category" />
                  <code value="vital-signs" />
                  <display value="Vital Signs" />
                </coding>
                <text value="Vital Signs" />
              </category>
              <code>
                <coding>
                  <system value="http://snomed.info/sct" />
                  <code value="364075005" />
                  <display value="Heart rate" />
                </coding>
                <text value="Heart rate" />
              </code>
              <subject>
                <reference value="urn:uuid:45b79f14-8a6d-48e9-9ec7-642dd7592e92" />
              </subject>
              <context>
                <reference value="urn:uuid:1cd20c60-4407-4e7d-8572-82db1b125eaf" />
              </context>
              <effectiveDateTime value="2023-08-08" />
              <issued value="2023-08-08T09:19:16.9660351+01:00" />
              <performer>
                <reference value="urn:uuid:7e0325f4-8340-42cc-b2d8-997f703d0bea" />
              </performer>
              <valueQuantity>
                <value value="82" />
                <unit value="per minute" />
                <system value="http://unitsofmeasure.org" />
                <code value="{beats}/min" />
              </valueQuantity>
              <bodySite>
                <coding>
                  <system value="http://snomed.info/sct" />
                  <code value="368209003" />
                  <display value="Right upper arm structure" />
                </coding>
                <text value="Right upper arm structure" />
              </bodySite>
            </Observation>
          </resource>
        </entry>
        <entry>
          <fullUrl value="urn:uuid:6e371772-8a9b-4bfc-b3f4-eed3e15dcf05" />
          <resource>
            <Observation>
              <id value="6e371772-8a9b-4bfc-b3f4-eed3e15dcf05" />
              <meta>
                <lastUpdated value="2023-08-08T09:12:14.2711908+01:00" />
                <profile value="https://fhir.nhs.uk/STU3/StructureDefinition/CareConnect-GPC-Observation-1" />
                <tag>
                  <system value="https://fhir.nhs.uk/CodeSystem/RecordStandardHeadings" />
                  <code value="social-context" />
                  <display value="Social context" />
                </tag>
              </meta>
              <identifier>
                <system value="https://fhir.provider.example/identifier/observation" />
                <value value="6e371772-8a9b-4bfc-b3f4-eed3e15dcf05" />
              </identifier>
              <status value="final" />
              <category>
                <coding>
                  <system value="http://terminology.hl7.org/CodeSystem/observation-category" />
                  <code value="social-history" />
                  <display value="Social History" />
                </coding>
                <text value="Social History" />
              </category>
              <code>
                <coding>
                  <system value="http://snomed.info/sct" />
                  <code value="8392000" />
                  <display value="Non-smoker" />
                </coding>
                <text value="Non-smoker" />
              </code>
              <subject>
                <reference value="urn:uuid:45b79f14-8a6d-48e9-9ec7-642dd7592e92" />
              </subject>
              <context>
                <reference value="urn:uuid:1cd20c60-4407-4e7d-8572-82db1b125eaf" />
              </context>
              <effectiveDateTime value="2023-08-08" />
              <issued value="2023-08-08T09:19:16.9661457+01:00" />
              <performer>
                <reference value="urn:uuid:7e0325f4-8340-42cc-b2d8-997f703d0bea" />
              </performer>
            </Observation>
          </resource>
        </entry>
        <entry>
          <fullUrl value="urn:uuid:c1a0cc27-c003-45fe-9042-7a36a93003c9" />
          <resource>
            <MedicationDispense>
              <id value="c1a0cc27-c003-45fe-9042-7a36a93003c9" />
              <meta>
                <lastUpdated value="2023-08-08T09:12:14.2711908+01:00" />
                <profile value="https://fhir.nhs.uk/STU3/StructureDefinition/CareConnect-GPC-MedicationDispense-1" />
              </meta>
              <identifier>
                <system value="https://fhir.provider.example/identifier/medication-dispense" />
                <value value="c1a0cc27-c003-45fe-9042-7a36a93003c9" />
              </identifier>
              <status value="completed" />
              <category>
                <coding>
                  <system value="http://hl7.org/fhir/medication-dispense-category" />
                  <code value="community" />
                  <display value="Community" />
                </coding>
                <text value="Community" />
              </category>
              <medicationCodeableConcept>
                <coding>
                  <system value="https://dmd.nhs.uk" />
                  <code value="289411000001107" />
                  <display value="Flucloxacillin 500mg capsules (A A H Pharmaceuticals Ltd)" />
                </coding>
                <text value="Flucloxacillin 500mg capsules (A A H Pharmaceuticals Ltd)" />
              </medicationCodeableConcept>
              <subject>
                <reference value="urn:uuid:45b79f14-8a6d-48e9-9ec7-642dd7592e92" />
              </subject>
              <context>
                <reference value="urn:uuid:1cd20c60-4407-4e7d-8572-82db1b125eaf" />
              </context>
              <performer>
                <actor>
                  <reference value="urn:uuid:7e0325f4-8340-42cc-b2d8-997f703d0bea" />
                </actor>
              </performer>
              <type>
                <coding>
                  <system value="https://fhir.hl7.org.uk/STU3/CodeSystem/CareConnect-MedicationSupplyType-1" />
                  <code value="patient-group-direction" />
                  <display value="Patient group direction" />
                </coding>
                <text value="Patient group direction" />
              </type>
              <quantity>
                <value value="20" />
                <unit value="Capsule" />
                <system value="http://snomed.info/sct" />
                <code value="428641000" />
              </quantity>
              <daysSupply>
                <value value="5" />
                <unit value="day" />
                <system value="http://unitsofmeasure.org" />
                <code value="d" />
              </daysSupply>
              <whenPrepared value="2023-08-08" />
              <whenHandedOver value="2023-08-08" />
              <dosageInstruction>
                <text value="Four times a day for 5 days (to be taken at least 1 hour before or 2 hours after meals)" />
                <patientInstruction value="Four times a day for 5 days (to be taken at least 1 hour before or 2 hours after meals)" />
                <timing>
                  <repeat>
                    <frequency value="4" />
                    <period value="1" />
                    <periodUnit value="d" />
                  </repeat>
                </timing>
                <route>
                  <coding>
                    <system value="http://snomed.info/sct" />
                    <code value="26643006" />
                    <display value="Oral route" />
                  </coding>
                  <text value="Oral route" />
                </route>
              </dosageInstruction>
            </MedicationDispense>
          </resource>
        </entry>
        <entry>
          <fullUrl value="urn:uuid:1b4a9a85-8084-4dcf-b6ac-c60b48a9ddcf" />
          <resource>
            <Condition>
              <id value="1b4a9a85-8084-4dcf-b6ac-c60b48a9ddcf" />
              <meta>
                <lastUpdated value="2023-08-08T09:12:14.2711908+01:00" />
                <profile value="https://fhir.nhs.uk/STU3/StructureDefinition/CareConnect-GPC-Condition-1" />
                <tag>
                  <system value="https://fhir.nhs.uk/CodeSystem/RecordStandardHeadings" />
                  <code value="presenting-complaints-or-issues" />
                  <display value="Presenting complaints or issues" />
                </tag>
              </meta>
              <identifier>
                <system value="https://fhir.provider.example/identifier/condition" />
                <value value="1b4a9a85-8084-4dcf-b6ac-c60b48a9ddcf" />
              </identifier>
              <clinicalStatus value="active" />
              <code>
                <coding>
                  <system value="http://snomed.info/sct" />
                  <code value="276433004" />
                  <display value="Insect bite - wound" />
                </coding>
                <text value="Insect bite - wound" />
              </code>
              <subject>
                <reference value="urn:uuid:45b79f14-8a6d-48e9-9ec7-642dd7592e92" />
              </subject>
              <context>
                <reference value="urn:uuid:1cd20c60-4407-4e7d-8572-82db1b125eaf" />
              </context>
              <assertedDate value="2023-08-08" />
              <asserter>
                <reference value="urn:uuid:7e0325f4-8340-42cc-b2d8-997f703d0bea" />
              </asserter>
            </Condition>
          </resource>
        </entry>
        <entry>
          <fullUrl value="urn:uuid:7671cc7e-9b99-4ffa-9ac6-1b634a2c91cc" />
          <resource>
            <ClinicalImpression>
              <id value="7671cc7e-9b99-4ffa-9ac6-1b634a2c91cc" />
              <meta>
                <lastUpdated value="2023-08-08T09:12:14.2711908+01:00" />
                <profile value="https://fhir.nhs.uk/STU3/StructureDefinition/CareConnect-GPC-ClinicalImpression-1" />
                <tag>
                  <system value="https://fhir.nhs.uk/CodeSystem/RecordStandardHeadings" />
                  <code value="clinical-summary" />
                  <display value="Clinical summary" />
                </tag>
              </meta>
              <identifier>
                <system value="https://fhir.provider.example/identifier/clinical-impression" />
                <value value="7671cc7e-9b99-4ffa-9ac6-1b634a2c91cc" />
              </identifier>
              <status value="completed" />
              <subject>
                <reference value="urn:uuid:45b79f14-8a6d-48e9-9ec7-642dd7592e92" />
              </subject>
              <context>
                <reference value="urn:uuid:1cd20c60-4407-4e7d-8572-82db1b125eaf" />
              </context>
              <date value="2023-08-08" />
              <assessor>
                <reference value="urn:uuid:7e0325f4-8340-42cc-b2d8-997f703d0bea" />
              </assessor>
              <summary value="Patient has had localised redness in skin and complains that had an insect bite on the site. Site is tender and swollen." />
            </ClinicalImpression>
          </resource>
        </entry>
        <entry>
          <fullUrl value="urn:uuid:9b4cead7-8367-45ab-a6db-9b15cdfe8683" />
          <resource>
            <ClinicalImpression>
              <id value="9b4cead7-8367-45ab-a6db-9b15cdfe8683" />
              <meta>
                <lastUpdated value="2023-08-08T09:12:14.2711908+01:00" />
                <profile value="https://fhir.nhs.uk/STU3/StructureDefinition/CareConnect-GPC-ClinicalImpression-1" />
                <tag>
                  <system value="https://fhir.nhs.uk/CodeSystem/RecordStandardHeadings" />
                  <code value="history" />
                  <display value="History" />
                </tag>
              </meta>
              <identifier>
                <system value="https://fhir.provider.example/identifier/clinical-impression" />
                <value value="9b4cead7-8367-45ab-a6db-9b15cdfe8683" />
              </identifier>
              <status value="completed" />
              <subject>
                <reference value="urn:uuid:45b79f14-8a6d-48e9-9ec7-642dd7592e92" />
              </subject>
              <context>
                <reference value="urn:uuid:1cd20c60-4407-4e7d-8572-82db1b125eaf" />
              </context>
              <date value="2023-08-08" />
              <assessor>
                <reference value="urn:uuid:7e0325f4-8340-42cc-b2d8-997f703d0bea" />
              </assessor>
              <summary value="Not allergic to penicillin." />
            </ClinicalImpression>
          </resource>
        </entry>
        <entry>
          <fullUrl value="urn:uuid:f55997bb-ff2c-43a4-b38e-7f8f68f43a25" />
          <resource>
            <ClinicalImpression>
              <id value="9b4cead7-8367-45ab-a6db-9b15cdfe8683" />
              <meta>
                <lastUpdated value="2023-08-08T09:12:14.2711908+01:00" />
                <profile value="https://fhir.nhs.uk/STU3/StructureDefinition/CareConnect-GPC-ClinicalImpression-1" />
                <tag>
                  <system value="https://fhir.nhs.uk/CodeSystem/RecordStandardHeadings" />
                  <code value="information-and-advice-given" />
                  <display value="Information and advice given" />
                </tag>
              </meta>
              <identifier>
                <system value="https://fhir.provider.example/identifier/clinical-impression" />
                <value value="f55997bb-ff2c-43a4-b38e-7f8f68f43a25" />
              </identifier>
              <status value="completed" />
              <subject>
                <reference value="urn:uuid:45b79f14-8a6d-48e9-9ec7-642dd7592e92" />
              </subject>
              <context>
                <reference value="urn:uuid:1cd20c60-4407-4e7d-8572-82db1b125eaf" />
              </context>
              <date value="2023-08-08" />
              <assessor>
                <reference value="urn:uuid:7e0325f4-8340-42cc-b2d8-997f703d0bea" />
              </assessor>
              <summary value="Keep the site clean. If the symptoms do not improve, contact 111." />
            </ClinicalImpression>
          </resource>
        </entry>
      </Bundle>
    </resource>
  </entry>
</Bundle>