<Bundle xmlns="http://hl7.org/fhir">
  <id value="pharmacy-first-service--example-2" />
  <meta>
    <lastUpdated value="2023-10-11T10:12:14.2711908+01:00" />
    <profile value="https://fhir.nhs.uk/STU3/StructureDefinition/ITK-Message-Bundle-1" />
  </meta>
  <identifier>
    <system value="https://fhir.provider.example/identifier/bundle" />
    <value value="minor-illness-common-conditions-service--example-2" />
  </identifier>
  <type value="message" />
  <entry>
    <fullUrl value="urn:uuid:8da58274-2c2a-4444-be8a-fbccbbb5ceb8" />
    <resource>
      <MessageHeader>
        <id value="8da58274-2c2a-4444-be8a-fbccbbb5ceb8" />
        <meta>
          <lastUpdated value="2023-08-08T09:12:14.2711908+01:00" />
          <profile value="https://fhir.nhs.uk/STU3/StructureDefinition/ITK-MessageHeader-2" />
        </meta>
        <extension url="https://fhir.nhs.uk/STU3/StructureDefinition/Extension-ITK-MessageHandling-2">
          <extension url="BusAckRequested">
            <valueBoolean value="true" />
          </extension>
          <extension url="InfAckRequested">
            <valueBoolean value="true" />
          </extension>
          <extension url="RecipientType">
            <valueCoding>
              <system value="https://fhir.nhs.uk/STU3/CodeSystem/ITK-RecipientType-1" />
              <code value="FI" />
              <display value="For Information" />
            </valueCoding>
          </extension>
          <extension url="MessageDefinition">
            <valueReference>
              <reference value="https://fhir.nhs.uk/MessageDefinition" />
            </valueReference>
          </extension>
          <extension url="SenderReference">
            <valueString value="urn:uuid:f8e7f842-0dee-400b-ae89-6f405cc64b0f" />
          </extension>
          <extension url="LocalExtension">
            <valueString value="None" />
          </extension>
        </extension>
        <event>
          <system value="https://fhir.nhs.uk/STU3/CodeSystem/ITK-MessageEvent-2" />
          <code value="ITK014M" />
          <display value="ITK Update Record" />
        </event>
        <sender>
          <reference value="urn:uuid:87838bcd-7493-435f-8d08-249c0214c71f" />
        </sender>
        <timestamp value="2023-08-08T09:20:05.6038279+01:00" />
        <source>
          <endpoint value="SENDER_MESH_MAILBOX_ID" />
        </source>
        <focus>
          <reference value="urn:uuid:08b38b8d-b0dd-46d4-b96c-f328608fcc21" />
        </focus>
      </MessageHeader>
    </resource>
  </entry>
  <entry>
    <fullUrl value="urn:uuid:87838bcd-7493-435f-8d08-249c0214c71f" />
    <resource>
      <Organization>
        <id value="87838bcd-7493-435f-8d08-249c0214c71f" />
        <meta>
          <lastUpdated value="2023-08-08T09:12:14.2711908+01:00" />
          <profile value="https://fhir.nhs.uk/STU3/StructureDefinition/CareConnect-ITK-Header-Organization-1" />
        </meta>
        <identifier>
          <system value="https://fhir.nhs.uk/Id/ods-organization-code" />
          <value value="FQW30" />
        </identifier>
      </Organization>
    </resource>
  </entry>
  <entry>
    <fullUrl value="urn:uuid:08b38b8d-b0dd-46d4-b96c-f328608fcc21" />
    <resource>
      <Bundle>
        <id value="08b38b8d-b0dd-46d4-b96c-f328608fcc21" />
        <meta>
          <lastUpdated value="2023-08-08T09:12:14.2711908+01:00" />
          <profile value="https://fhir.nhs.uk/STU3/StructureDefinition/ITK-Document-Bundle-1" />
        </meta>
        <identifier>
          <system value="https://fhir.provider.example/identifier/bundle" />
          <value value="08b38b8d-b0dd-46d4-b96c-f328608fcc21" />
        </identifier>
        <type value="document" />
        <entry>
          <fullUrl value="urn:uuid:b7b85403-8891-4888-948b-52c0d0d61216" />
          <resource>
            <Composition>
              <id value="b7b85403-8891-4888-948b-52c0d0d61216" />
              <meta>
                <lastUpdated value="2023-08-08T09:12:14.2711908+01:00" />
                <profile value="https://fhir.hl7.org.uk/STU3/StructureDefinition/CareConnect-Composition-1" />
              </meta>
              <identifier>
                <system value="https://fhir.provider.example/identifier/composition" />
                <value value="b7b85403-8891-4888-948b-52c0d0d61216" />
              </identifier>
              <status value="final" />
              <type>
                <coding>
                  <system value="http://snomed.info/sct" />
                  <code value="1577041000000109" />
                  <display value="Community Pharmacist Consultation Service for minor illness" />
                </coding>
                <text value="Community Pharmacist Consultation Service for minor illness" />
              </type>
              <subject>
                <reference value="urn:uuid:77bce268-18e7-4060-a781-9e7e6ba086bd" />
              </subject>
              <encounter>
                <reference value="urn:uuid:f8e7f842-0dee-400b-ae89-6f405cc64b0f" />
              </encounter>
              <date value="2023-08-08" />
              <author>
                <reference value="urn:uuid:b6c487fb-22da-4aae-a29e-f24858d84d62" />
              </author>
              <title value="The Dispensers - Community Pharmacist Consultation Service for minor illness" />
              <section>
                <entry>
                  <reference value="urn:uuid:f8e7f842-0dee-400b-ae89-6f405cc64b0f" />
                </entry>
                <entry>
                  <reference value="urn:uuid:a6c219ef-67a9-4ab8-b287-79f052f0a90c" />
                </entry>
                <entry>
                  <reference value="urn:uuid:b6c487fb-22da-4aae-a29e-f24858d84d62" />
                </entry>
                <entry>
                  <reference value="urn:uuid:adbfa2d1-07c5-4b5b-b788-0c66c8e8df18" />
                </entry>
                <entry>
                  <reference value="urn:uuid:77bce268-18e7-4060-a781-9e7e6ba086bd" />
                </entry>
                <entry>
                  <reference value="urn:uuid:708bd946-776d-4941-ab08-bec117e1b66e" />
                </entry>
                <entry>
                  <reference value="urn:uuid:304e7eb3-055b-41b1-80b1-41b2437025e7" />
                </entry>
                <entry>
                  <reference value="urn:uuid:a02f061c-5ae1-4acb-b599-3c2ce4cb7545" />
                </entry>
                <entry>
                  <reference value="urn:uuid:3343dda4-b7a8-433c-bc80-be5724d00ce2" />
                </entry>
                <entry>
                  <reference value="urn:uuid:a6a3ff21-a2dd-4368-b1f1-c361f18675ef" />
                </entry>
                <entry>
                  <reference value="urn:uuid:7ad82a2d-79b7-421c-aa67-c0ff5fac80a1" />
                </entry>
                <entry>
                  <reference value="urn:uuid:21516e85-4933-4450-aa68-18a28f071800" />
                </entry>
              </section>
            </Composition>
          </resource>
        </entry>
        <entry>
          <fullUrl value="urn:uuid:f8e7f842-0dee-400b-ae89-6f405cc64b0f" />
          <resource>
            <Encounter>
              <id value="f8e7f842-0dee-400b-ae89-6f405cc64b0f" />
              <meta>
                <lastUpdated value="2023-08-08T09:12:14.2711908+01:00" />
                <profile value="https://fhir.nhs.uk/STU3/StructureDefinition/CareConnect-GPC-Encounter-1" />
              </meta>
              <extension url="https://fhir.hl7.org.uk/STU3/StructureDefinition/Extension-CareConnect-OutcomeOfAttendance-1">
                <valueCodeableConcept>
                  <coding>
                    <system value="https://fhir.hl7.org.uk/STU3/CodeSystem/CareConnect-OutcomeOfAttendance-1" />
                    <code value="1" />
                  </coding>
                  <text value="Discharged from Consultant's care (last attendance)" />
                </valueCodeableConcept>
              </extension>
              <identifier>
                <system value="https://fhir.provider.example/identifier/encounter" />
                <value value="f8e7f842-0dee-400b-ae89-6f405cc64b0f" />
              </identifier>
              <status value="finished" />
              <type>
                <coding>
                  <system value="http://snomed.info/sct" />
                  <code value="307778003" />
                  <display value="Seen in primary care establishment" />
                </coding>
                <text value="Seen in primary care establishment" />
              </type>
              <subject>
                <reference value="urn:uuid:77bce268-18e7-4060-a781-9e7e6ba086bd" />
              </subject>
              <participant>
                <type>
                  <coding>
                    <system value="https://fhir.nhs.uk/STU3/CodeSystem/GPConnect-ParticipantType-1" />
                    <code value="REC" />
                  </coding>
                  <text value="recorder" />
                </type>
                <individual>
                  <reference value="urn:uuid:b6c487fb-22da-4aae-a29e-f24858d84d62" />
                </individual>
              </participant>
              <period>
                <start value="2023-08-08" />
              </period>
              <reason>
                <coding>
                  <system value="http://snomed.info/sct" />
                  <code value="1577041000000109" />
                  <display value="Community Pharmacist Consultation Service for minor illness" />
                </coding>
                <text value="Community Pharmacist Consultation Service for minor illness" />
              </reason>
              <serviceProvider>
                <reference value="urn:uuid:a6c219ef-67a9-4ab8-b287-79f052f0a90c" />
              </serviceProvider>
            </Encounter>
          </resource>
        </entry>
        <entry>
          <fullUrl value="urn:uuid:a6c219ef-67a9-4ab8-b287-79f052f0a90c" />
          <resource>
            <Organization>
              <id value="a6c219ef-67a9-4ab8-b287-79f052f0a90c" />
              <meta>
                <lastUpdated value="2023-08-08T09:12:14.2711908+01:00" />
                <profile value="https://fhir.nhs.uk/STU3/StructureDefinition/CareConnect-GPC-Organization-1" />
              </meta>
              <identifier>
                <system value="https://fhir.nhs.uk/Id/ods-organization-code" />
                <value value="A(*)" />
              </identifier>
              <name value="The Dispensers" />
            </Organization>
          </resource>
        </entry>
        <entry>
          <fullUrl value="urn:uuid:b6c487fb-22da-4aae-a29e-f24858d84d62" />
          <resource>
            <Practitioner>
              <id value="b6c487fb-22da-4aae-a29e-f24858d84d62" />
              <meta>
                <lastUpdated value="2023-08-08T09:12:14.2711908+01:00" />
                <profile value="https://fhir.nhs.uk/STU3/StructureDefinition/CareConnect-GPC-Practitioner-1" />
              </meta>
              <identifier>
                <system value="https://fhir.provider.example/identifier/staff" />
                <value value="b6c487fb-22da-4aae-a29e-f24858d84d62" />
              </identifier>
              <identifier>
                <system value="https://fhir.hl7.org.uk/Id/gphc-number" />
                <value value="NNNNNNN" />
              </identifier>
              <name>
                <family value="Kai-Shun" />
                <given value="Medi" />
                <prefix value="Dr" />
              </name>
            </Practitioner>
          </resource>
        </entry>
        <entry>
          <fullUrl value="urn:uuid:adbfa2d1-07c5-4b5b-b788-0c66c8e8df18" />
          <resource>
            <PractitionerRole>
              <id value="adbfa2d1-07c5-4b5b-b788-0c66c8e8df18" />
              <meta>
                <lastUpdated value="2023-08-08T09:12:14.2711908+01:00" />
                <profile value="https://fhir.nhs.uk/STU3/StructureDefinition/CareConnect-GPC-PractitionerRole-1" />
              </meta>
              <practitioner>
                <reference value="urn:uuid:b6c487fb-22da-4aae-a29e-f24858d84d62" />
              </practitioner>
              <organization>
                <reference value="urn:uuid:a6c219ef-67a9-4ab8-b287-79f052f0a90c" />
              </organization>
              <code>
                <coding>
                  <system value="https://fhir.nhs.uk/STU3/CodeSystem/CareConnect-SDSJobRoleName-1" />
                  <code value="R1290" />
                  <display value="Pharmacist" />
                </coding>
                <text value="Pharmacist" />
              </code>
            </PractitionerRole>
          </resource>
        </entry>
        <entry>
          <fullUrl value="urn:uuid:77bce268-18e7-4060-a781-9e7e6ba086bd" />
          <resource>
            <Patient>
              <id value="77bce268-18e7-4060-a781-9e7e6ba086bd" />
              <meta>
                <lastUpdated value="2023-08-08T09:12:14.2711908+01:00" />
                <profile value="https://fhir.nhs.uk/STU3/StructureDefinition/CareConnect-GPC-Patient-1" />
              </meta>
              <identifier>
                <extension url="https://fhir.nhs.uk/STU3/StructureDefinition/Extension-CareConnect-GPC-NHSNumberVerificationStatus-1">
                  <valueCodeableConcept>
                    <coding>
                      <system value="https://fhir.nhs.uk/STU3/CodeSystem/CareConnect-NHSNumberVerificationStatus-1" />
                      <code value="01" />
                      <display value="Number present and verified" />
                    </coding>
                    <text value="Number present and verified" />
                  </valueCodeableConcept>
                </extension>
                <system value="https://fhir.nhs.uk/Id/nhs-number" />
                <value value="4857773456" />
              </identifier>
              <identifier>
                <system value="https://fhir.provider.example/identifier/patient" />
                <value value="77bce268-18e7-4060-a781-9e7e6ba086bd" />
              </identifier>
              <name>
                <use value="official" />
                <family value="TURNER" />
                <given value="Paige" />
              </name>
              <gender value="male" />
              <birthDate value="1999-08-08" />
              <address>
                <postalCode value="REA DME" />
              </address>
            </Patient>
          </resource>
        </entry>
        <entry>
          <fullUrl value="urn:uuid:708bd946-776d-4941-ab08-bec117e1b66e" />
          <resource>
            <Observation>
              <id value="708bd946-776d-4941-ab08-bec117e1b66e" />
              <meta>
                <lastUpdated value="2023-08-08T09:12:14.2711908+01:00" />
                <profile value="https://fhir.nhs.uk/STU3/StructureDefinition/CareConnect-GPC-Observation-1" />
              </meta>
              <identifier>
                <system value="https://fhir.provider.example/identifier/observation" />
                <value value="708bd946-776d-4941-ab08-bec117e1b66e" />
              </identifier>
              <status value="final" />
              <category>
                <coding>
                  <system value="http://terminology.hl7.org/CodeSystem/observation-category" />
                  <code value="vital-signs" />
                  <display value="Vital Signs" />
                </coding>
                <text value="Vital Signs" />
              </category>
              <code>
                <coding>
                  <system value="http://snomed.info/sct" />
                  <code value="703421000" />
                  <display value="Temperature" />
                </coding>
                <text value="Temperature" />
              </code>
              <subject>
                <reference value="urn:uuid:77bce268-18e7-4060-a781-9e7e6ba086bd" />
              </subject>
              <context>
                <reference value="urn:uuid:f8e7f842-0dee-400b-ae89-6f405cc64b0f" />
              </context>
              <effectiveDateTime value="2023-08-08" />
              <issued value="2023-08-08T09:20:05.6372208+01:00" />
              <performer>
                <reference value="urn:uuid:b6c487fb-22da-4aae-a29e-f24858d84d62" />
              </performer>
              <valueQuantity>
                <value value="36.7" />
                <unit value="degree Celsius" />
                <system value="http://unitsofmeasure.org" />
                <code value="Cel" />
              </valueQuantity>
            </Observation>
          </resource>
        </entry>
        <entry>
          <fullUrl value="urn:uuid:304e7eb3-055b-41b1-80b1-41b2437025e7" />
          <resource>
            <Observation>
              <id value="304e7eb3-055b-41b1-80b1-41b2437025e7" />
              <meta>
                <lastUpdated value="2023-08-08T09:12:14.2711908+01:00" />
                <profile value="https://fhir.nhs.uk/STU3/StructureDefinition/CareConnect-GPC-Observation-1" />
              </meta>
              <identifier>
                <system value="https://fhir.provider.example/identifier/observation" />
                <value value="304e7eb3-055b-41b1-80b1-41b2437025e7" />
              </identifier>
              <status value="final" />
              <category>
                <coding>
                  <system value="http://terminology.hl7.org/CodeSystem/observation-category" />
                  <code value="social-history" />
                  <display value="Social History" />
                </coding>
                <text value="Social History" />
              </category>
              <code>
                <coding>
                  <system value="http://snomed.info/sct" />
                  <code value="314137006" />
                  <display value="Urine nitrite positive" />
                </coding>
                <text value="Urine nitrite positive" />
              </code>
              <subject>
                <reference value="urn:uuid:77bce268-18e7-4060-a781-9e7e6ba086bd" />
              </subject>
              <context>
                <reference value="urn:uuid:f8e7f842-0dee-400b-ae89-6f405cc64b0f" />
              </context>
              <effectiveDateTime value="2023-08-08" />
              <issued value="2023-08-08T09:20:05.6398339+01:00" />
              <performer>
                <reference value="urn:uuid:b6c487fb-22da-4aae-a29e-f24858d84d62" />
              </performer>
            </Observation>
          </resource>
        </entry>
        <entry>
          <fullUrl value="urn:uuid:a02f061c-5ae1-4acb-b599-3c2ce4cb7545" />
          <resource>
            <MedicationDispense>
              <id value="a02f061c-5ae1-4acb-b599-3c2ce4cb7545" />
              <meta>
                <profile value="https://fhir.nhs.uk/STU3/StructureDefinition/CareConnect-GPC-MedicationDispense-1" />
              </meta>
              <identifier>
                <system value="https://fhir.provider.example/identifier/medication-dispense" />
                <value value="a02f061c-5ae1-4acb-b599-3c2ce4cb7545" />
              </identifier>
              <status value="completed" />
              <category>
                <coding>
                  <system value="http://hl7.org/fhir/medication-dispense-category" />
                  <code value="community" />
                  <display value="Community" />
                </coding>
                <text value="Community" />
              </category>
              <medicationCodeableConcept>
                <coding>
                  <system value="https://dmd.nhs.uk" />
                  <code value="24549911000001107" />
                  <display value="Nitrofurantoin 50mg capsules (A A H Pharmaceuticals Ltd)" />
                </coding>
                <text value="Nitrofurantoin 50mg capsules (A A H Pharmaceuticals Ltd)" />
              </medicationCodeableConcept>
              <subject>
                <reference value="urn:uuid:77bce268-18e7-4060-a781-9e7e6ba086bd" />
              </subject>
              <context>
                <reference value="urn:uuid:f8e7f842-0dee-400b-ae89-6f405cc64b0f" />
              </context>
              <performer>
                <actor>
                  <reference value="urn:uuid:b6c487fb-22da-4aae-a29e-f24858d84d62" />
                </actor>
              </performer>
              <type>
                <coding>
                  <system value="https://fhir.hl7.org.uk/STU3/CodeSystem/CareConnect-MedicationSupplyType-1" />
                  <code value="patient-group-direction" />
                  <display value="Patient group direction" />
                </coding>
                <text value="Patient group direction" />
              </type>
              <quantity>
                <value value="21" />
                <unit value="Capsule" />
                <system value="http://snomed.info/sct" />
                <code value="428641000" />
              </quantity>
              <daysSupply>
                <value value="7" />
                <unit value="day" />
                <system value="http://unitsofmeasure.org" />
                <code value="d" />
              </daysSupply>
              <whenPrepared value="2023-08-08" />
              <whenHandedOver value="2023-08-08" />
              <dosageInstruction>
                <text value="Take four times per day, for seven days." />
                <patientInstruction value="Take four times per day, for seven days." />
                <timing>
                  <repeat>
                    <frequency value="4" />
                    <period value="1" />
                    <periodUnit value="d" />
                  </repeat>
                </timing>
                <route>
                  <coding>
                    <system value="http://snomed.info/sct" />
                    <code value="26643006" />
                    <display value="Oral route" />
                  </coding>
                  <text value="Oral route" />
                </route>
              </dosageInstruction>
            </MedicationDispense>
          </resource>
        </entry>
        <entry>
          <fullUrl value="urn:uuid:3343dda4-b7a8-433c-bc80-be5724d00ce2" />
          <resource>
            <Condition>
              <id value="3343dda4-b7a8-433c-bc80-be5724d00ce2" />
              <meta>
                <profile value="https://fhir.nhs.uk/STU3/StructureDefinition/CareConnect-GPC-Condition-1" />
                <tag>
                  <system value="https://fhir.nhs.uk/CodeSystem/RecordStandardHeadings" />
                  <code value="presenting-complaints-or-issues" />
                  <display value="Presenting complaints or issues" />
                </tag>
              </meta>
              <identifier>
                <system value="https://fhir.provider.example/identifier/condition" />
                <value value="3343dda4-b7a8-433c-bc80-be5724d00ce2" />
              </identifier>
              <clinicalStatus value="active" />
              <code>
                <coding>
                  <system value="http://snomed.info/sct" />
                  <code value="68566005" />
                  <display value="Urinary tract infectious disease" />
                </coding>
                <text value="Urinary tract infectious disease" />
              </code>
              <subject>
                <reference value="urn:uuid:77bce268-18e7-4060-a781-9e7e6ba086bd" />
              </subject>
              <context>
                <reference value="urn:uuid:f8e7f842-0dee-400b-ae89-6f405cc64b0f" />
              </context>
              <assertedDate value="2023-08-08" />
              <asserter>
                <reference value="urn:uuid:b6c487fb-22da-4aae-a29e-f24858d84d62" />
              </asserter>
            </Condition>
          </resource>
        </entry>
        <entry>
          <fullUrl value="urn:uuid:a6a3ff21-a2dd-4368-b1f1-c361f18675ef" />
          <resource>
            <ClinicalImpression>
              <id value="a6a3ff21-a2dd-4368-b1f1-c361f18675ef" />
              <meta>
                <profile value="https://fhir.nhs.uk/STU3/StructureDefinition/CareConnect-GPC-ClinicalImpression-1" />
                <tag>
                  <system value="https://fhir.nhs.uk/CodeSystem/RecordStandardHeadings" />
                  <code value="clinical-summary" />
                  <display value="Clinical summary" />
                </tag>
              </meta>
              <identifier>
                <system value="https://fhir.provider.example/identifier/clinical-impression" />
                <value value="a6a3ff21-a2dd-4368-b1f1-c361f18675ef" />
              </identifier>
              <status value="completed" />
              <subject>
                <reference value="urn:uuid:77bce268-18e7-4060-a781-9e7e6ba086bd" />
              </subject>
              <context>
                <reference value="urn:uuid:f8e7f842-0dee-400b-ae89-6f405cc64b0f" />
              </context>
              <date value="2023-08-08" />
              <assessor>
                <reference value="urn:uuid:b6c487fb-22da-4aae-a29e-f24858d84d62" />
              </assessor>
              <summary value="Female patient has had frequent urination and burning sensation when passing urine. No discharge, patient has pain in lower abdomen." />
            </ClinicalImpression>
          </resource>
        </entry>
        <entry>
          <fullUrl value="urn:uuid:7ad82a2d-79b7-421c-aa67-c0ff5fac80a1" />
          <resource>
            <ClinicalImpression>
              <id value="7ad82a2d-79b7-421c-aa67-c0ff5fac80a1" />
              <meta>
                <profile value="https://fhir.nhs.uk/STU3/StructureDefinition/CareConnect-GPC-ClinicalImpression-1" />
                <tag>
                  <system value="https://fhir.nhs.uk/CodeSystem/RecordStandardHeadings" />
                  <code value="history" />
                  <display value="History" />
                </tag>
              </meta>
              <identifier>
                <system value="https://fhir.provider.example/identifier/clinical-impression" />
                <value value="7ad82a2d-79b7-421c-aa67-c0ff5fac80a1" />
              </identifier>
              <status value="completed" />
              <subject>
                <reference value="urn:uuid:77bce268-18e7-4060-a781-9e7e6ba086bd" />
              </subject>
              <context>
                <reference value="urn:uuid:f8e7f842-0dee-400b-ae89-6f405cc64b0f" />
              </context>
              <date value="2023-08-08" />
              <assessor>
                <reference value="urn:uuid:b6c487fb-22da-4aae-a29e-f24858d84d62" />
              </assessor>
              <summary value="Not taken Nitrofurantoin in past 3 months" />
            </ClinicalImpression>
          </resource>
        </entry>
        <entry>
          <fullUrl value="urn:uuid:21516e85-4933-4450-aa68-18a28f071800" />
          <resource>
            <ClinicalImpression>
              <id value="21516e85-4933-4450-aa68-18a28f071800" />
              <meta>
                <profile value="https://fhir.nhs.uk/STU3/StructureDefinition/CareConnect-GPC-ClinicalImpression-1" />
                <tag>
                  <system value="https://fhir.nhs.uk/CodeSystem/RecordStandardHeadings" />
                  <code value="information-and-advice-given" />
                  <display value="Information and advice given" />
                </tag>
              </meta>
              <identifier>
                <system value="https://fhir.provider.example/identifier/clinical-impression" />
                <value value="21516e85-4933-4450-aa68-18a28f071800" />
              </identifier>
              <status value="completed" />
              <subject>
                <reference value="urn:uuid:77bce268-18e7-4060-a781-9e7e6ba086bd" />
              </subject>
              <context>
                <reference value="urn:uuid:f8e7f842-0dee-400b-ae89-6f405cc64b0f" />
              </context>
              <date value="2023-08-08" />
              <assessor>
                <reference value="urn:uuid:b6c487fb-22da-4aae-a29e-f24858d84d62" />
              </assessor>
              <summary value="If symptoms do not improve within 2 days, please call 111 for further advice." />
            </ClinicalImpression>
          </resource>
        </entry>
      </Bundle>
    </resource>
  </entry>
</Bundle>