<Bundle xmlns="http://hl7.org/fhir">
  <id value="send-document--generic-example" />
  <identifier>
    <system value="https://fhir.provider.example/identifier/bundle" />
    <value value="send-document--generic-example" />
  </identifier>
  <type value="message" />
  <entry>
    <fullUrl value="urn:uuid:adcdf4b6-4c9d-4347-9dca-1264e1f51a4b" />
    <resource>
      <MessageHeader>
        <id value="adcdf4b6-4c9d-4347-9dca-1264e1f51a4b" />
        <extension url="https://fhir.nhs.uk/STU3/StructureDefinition/Extension-ITK-MessageHandling-2">
          <extension url="BusAckRequested">
            <valueBoolean value="true" />
          </extension>
          <extension url="InfAckRequested">
            <valueBoolean value="true" />
          </extension>
          <extension url="RecipientType">
            <valueCoding>
              <system value="https://fhir.nhs.uk/STU3/CodeSystem/ITK-RecipientType-1" />
              <code value="FI" />
              <display value="For Information" />
            </valueCoding>
          </extension>
          <extension url="MessageDefinition">
            <valueReference>
              <reference value="https://fhir.nhs.uk/STU3/MessageDefinition/ITK-GPConnectSendDocument-MessageDefinition-1" />
            </valueReference>
          </extension>
          <extension url="SenderReference">
            <valueString value="urn:uuid:28182303-be8d-429f-a593-4bd1b4952fc5" />
          </extension>
          <extension url="LocalExtension">
            <valueString value="None" />
          </extension>
        </extension>
        <event>
            <system value="https://fhir.nhs.uk/STU3/CodeSystem/ITK-MessageEvent-2" />
            <code value="ITK007C" />
            <display value="ITK GP Connect Send Document" />
        </event>
        <sender>
          <reference value="urn:uuid:41abf8ce-2d2e-11ee-be56-0242ac120002" />
        </sender>
        <timestamp value="2023-08-15T10:40:53.3713512+01:00" />
        <source>
          <endpoint value="SENDER_MESH_MAILBOX_ID" />
        </source>
        <focus>
          <reference value="urn:uuid:2eefc87f-8a16-45a1-a666-1753237608a3" />
        </focus>
      </MessageHeader>
    </resource>
  </entry>
  <entry>
    <fullUrl value="urn:uuid:41abf8ce-2d2e-11ee-be56-0242ac120002" />
    <resource>
      <Organization>
        <id value="41abf8ce-2d2e-11ee-be56-0242ac120002" />
        <identifier>
          <system value="https://fhir.nhs.uk/Id/ods-organization-code" />
          <value value="FQW30" />
        </identifier>
      </Organization>
    </resource>
  </entry>
  <entry>
    <fullUrl value="urn:uuid:2eefc87f-8a16-45a1-a666-1753237608a3" />
    <resource>
      <Bundle>
        <id value="2eefc87f-8a16-45a1-a666-1753237608a3" />
        <meta>
          <lastUpdated value="2023-08-15T10:40:53.3776796+01:00" />
        </meta>
        <identifier>
          <system value="https://fhir.provider.example/identifier/bundle" />
          <value value="2eefc87f-8a16-45a1-a666-1753237608a3" />
        </identifier>
        <type value="document" />
        <entry>
          <fullUrl value="urn:uuid:28182303-be8d-429f-a593-4bd1b4952fc5" />
          <resource>
            <Composition>
              <id value="28182303-be8d-429f-a593-4bd1b4952fc5" />
              <identifier>
                <system value="https://fhir.provider.example/identifier/composition" />
                <value value="28182303-be8d-429f-a593-4bd1b4952fc5" />
              </identifier>
              <status value="final" />
              <type>
                <coding>
                  <system value="http://snomed.info/sct" />
                  <code value="325871000000103" />
                  <display value="Remote consultation encounter type" />
                </coding>
                <text value="Remote consultation encounter type" />
              </type>
              <subject>
                <reference value="urn:uuid:0192624d-34ff-419a-9814-4705fadb5c56" />
              </subject>
              <date value="2023-08-15" />
              <author>
                <reference value="urn:uuid:5d7e5ef0-dddb-4cb3-905a-d21e26eb64e6" />
              </author>
              <title value="[document-title]" />
              <section>
                <entry>
                  <reference value="urn:uuid:d850c18b-5143-4ae6-bf5f-96f102e7d3d7" />
                </entry>
                <entry>
                  <reference value="urn:uuid:5d7e5ef0-dddb-4cb3-905a-d21e26eb64e6" />
                </entry>
                <entry>
                  <reference value="urn:uuid:0192624d-34ff-419a-9814-4705fadb5c56" />
                </entry>
                <entry>
                  <reference value="urn:uuid:27efad31-ca2b-4a3c-9369-a897489bb96a" />
                </entry>
              </section>
            </Composition>
          </resource>
        </entry>
        <entry>
          <fullUrl value="urn:uuid:d850c18b-5143-4ae6-bf5f-96f102e7d3d7" />
          <resource>
            <Organization>
              <id value="d850c18b-5143-4ae6-bf5f-96f102e7d3d7" />
              <identifier>
                <system value="https://fhir.nhs.uk/Id/ods-organization-code" />
                <value value="A(*)" />
              </identifier>
              <name value="[organisation-name]" />
            </Organization>
          </resource>
        </entry>
        <entry>
          <fullUrl value="urn:uuid:5d7e5ef0-dddb-4cb3-905a-d21e26eb64e6" />
          <resource>
            <Practitioner>
              <id value="5d7e5ef0-dddb-4cb3-905a-d21e26eb64e6" />
              <identifier>
                <system value="https://fhir.provider.example/identifier/staff" />
                <value value="5d7e5ef0-dddb-4cb3-905a-d21e26eb64e6" />
              </identifier>
              <identifier>
                <system value="https://fhir.hl7.org.uk/Id/gphc-number" />
                <value value="NNNNNNN" />
              </identifier>
              <name>
                <family value="[last-name]" />
                <given value="[first-name]" />
                <given value="[middle-name]" />
                <prefix value="[prefix]" />
              </name>
            </Practitioner>
          </resource>
        </entry>
        <entry>
          <fullUrl value="urn:uuid:0192624d-34ff-419a-9814-4705fadb5c56" />
          <resource>
            <Patient>
              <id value="0192624d-34ff-419a-9814-4705fadb5c56" />
              <identifier>
                <extension url="https://fhir.nhs.uk/STU3/StructureDefinition/Extension-CareConnect-GPC-NHSNumberVerificationStatus-1">
                  <valueCodeableConcept>
                    <coding>
                      <system value="https://fhir.hl7.org.uk/STU3/CodeSystem/CareConnect-NHSNumberVerificationStatus-1" />
                      <code value="01" />
                      <display value="Number present and verified" />
                    </coding>
                    <text value="Number present and verified" />
                  </valueCodeableConcept>
                </extension>
                <system value="https://fhir.nhs.uk/Id/nhs-number" />
                <value value="4857773456" />
              </identifier>
              <identifier>
                <system value="https://fhir.provider.example/identifier/patient" />
                <value value="0192624d-34ff-419a-9814-4705fadb5c56" />
              </identifier>
              <name>
                <use value="official" />
                <family value="[last-name]" />
                <given value="[first-name]" />
                <given value="[middle-name]" />
              </name>
              <gender value="male" />
              <birthDate value="1999-08-15" />
              <address>
                <postalCode value="[postal-code]" />
              </address>
            </Patient>
          </resource>
        </entry>
        <entry>
          <fullUrl value="urn:uuid:27efad31-ca2b-4a3c-9369-a897489bb96a" />
          <resource>
            <Binary>
              <contentType value="application/pdf" />
              <content value="JVBERi0xLjMNCiXi48/TDQoxIDAgb2JqDQo8PA0KL0NyZWF0b3IgKEdyYXBlQ2l0eS5Eb2N1bWVudHMuUGRmLTMuMi4wLjU1NikNCj4+DQplbmRvYmoNCjIgMCBvYmoNCjw8DQovVHlwZSAvTWV0YWRhdGENCi9TdWJ0eXBlIC9YTUwNCi9MZW5ndGggOTI0DQ                                                                                                                                                                                                                                                                                                                                         E3RjdDMjA4MEE0Pl0NCj4+DQpzdGFydHhyZWYNCjU0NjA1DQolJUVPRg0K" />
            </Binary>
          </resource>
        </entry>
      </Bundle>
    </resource>
  </entry>
</Bundle>