<?xml version='1.0' encoding='utf-8'?>
<Bundle xmlns="http://hl7.org/fhir">
  <id value="402bb010-c992-4e7f-a353-52f70021d2de" />
  <meta>
    <profile value="https://fhir.nhs.uk/STU3/StructureDefinition/ITK-Message-Bundle-1" />
  </meta>
  <identifier>
    <system value="https://tools.ietf.org/html/rfc4122" />
    <value value="e9e53d9d-395c-425c-be94-9228d13d0b99" />
  </identifier>
  <type value="message" />
  <entry>
    <fullUrl value="urn:uuid:2d7addc3-6b4a-4931-b600-d8eab3a22c55" />
    <resource>
      <MessageHeader>
        <id value="2d7addc3-6b4a-4931-b600-d8eab3a22c55" />
        <meta>
          <profile value="https://fhir.nhs.uk/STU3/StructureDefinition/ITK-MessageHeader-2" />
        </meta>
        <extension url="https://fhir.nhs.uk/STU3/StructureDefinition/Extension-ITK-MessageHandling-2">
          <extension url="BusAckRequested">
            <valueBoolean value="true" />
          </extension>
          <extension url="InfAckRequested">
            <valueBoolean value="true" />
          </extension>
          <extension url="RecipientType">
            <valueCoding>
              <system value="https://fhir.nhs.uk/STU3/CodeSystem/ITK-RecipientType-1" />
              <code value="FA" />
              <display value="For Action" />
            </valueCoding>
          </extension>
          <extension url="MessageDefinition">
            <valueReference>
              <reference value="https://fhir.nhs.uk/STU3/MessageDefinition/ITK-DM-Immunization-MessageDefinition-1" />
            </valueReference>
          </extension>
          <extension url="SenderReference">
            <valueString value="None" />
          </extension>
          <extension url="LocalExtension">
            <valueString value="None" />
          </extension>
        </extension>
        <event>
          <system value="https://fhir.nhs.uk/STU3/CodeSystem/ITK-MessageEvent-2" />
          <code value="ITK009D" />
          <display value="ITK Digital Medicine Immunization Document" />
        </event>
        <receiver>
          <reference value="urn:uuid:d3b034fb-dfb6-4d98-be95-6b13e383a90e" />
        </receiver>
        <sender>
          <reference value="urn:uuid:2240e02a-5c27-48e3-b5fd-e0a4bbc0c2a8" />
        </sender>
        <timestamp value="2021-04-14T15:50:43+00:00" />
        <source>
          <endpoint value="X26OT134" />
        </source>
        <focus>
          <reference value="urn:uuid:bb760ef6-1c52-460c-83dc-874e5549127f" />
        </focus>
      </MessageHeader>
    </resource>
  </entry>
  <entry>
    <fullUrl value="urn:uuid:2240e02a-5c27-48e3-b5fd-e0a4bbc0c2a8" />
    <resource>
      <Organization>
        <id value="2240e02a-5c27-48e3-b5fd-e0a4bbc0c2a8" />
        <meta>
          <profile value="https://fhir.nhs.uk/STU3/StructureDefinition/CareConnect-ITK-Header-Organization-1" />
        </meta>
        <identifier>
          <system value="https://fhir.nhs.uk/Id/ods-organization-code" />
          <value value="X26" />
        </identifier>
      </Organization>
    </resource>
  </entry>
  <entry>
    <fullUrl value="urn:uuid:d3b034fb-dfb6-4d98-be95-6b13e383a90e" />
    <resource>
      <Organization>
        <id value="d3b034fb-dfb6-4d98-be95-6b13e383a90e" />
        <meta>
          <profile value="https://fhir.nhs.uk/STU3/StructureDefinition/CareConnect-ITK-Header-Organization-1" />
        </meta>
        <identifier>
          <system value="https://fhir.nhs.uk/Id/ods-organization-code" />
          <value value="B86057" />
        </identifier>
      </Organization>
    </resource>
  </entry>
  <entry>
    <fullUrl value="urn:uuid:bb760ef6-1c52-460c-83dc-874e5549127f" />
    <resource>
      <Bundle xmlns="http://hl7.org/fhir">
        <id value="bb760ef6-1c52-460c-83dc-874e5549127f" />
        <meta>
          <profile value="https://fhir.nhs.uk/STU3/StructureDefinition/ITK-Document-Bundle-1" />
        </meta>
        <identifier>
          <system value="https://tools.ietf.org/html/rfc4122" />
          <value value="9fc8e8aa-0694-42bd-8844-7dc2a39fbd59" />
        </identifier>
        <type value="document" />
        <entry>
          <fullUrl value="urn:uuid:7f9d8cfc-60b0-4b04-ae99-0739ead45a75" />
          <resource>
            <Composition>
              <id value="7f9d8cfc-60b0-4b04-ae99-0739ead45a75" />
              <meta>
                <profile value="https://fhir.nhs.uk/STU3/StructureDefinition/CareConnect-ITK-DM-Immunization-Composition-1" />
              </meta>
              <extension url="https://fhir.nhs.uk/STU3/StructureDefinition/Extension-CareSettingType-1">
                <valueCodeableConcept>
                  <coding>
                    <system value="http://snomed.info/sct" />
                    <code value="413294000" />
                    <display value="Community health services (qualifier value)" />
                  </coding>
                </valueCodeableConcept>
              </extension>
              <identifier>
                <system value="https://tools.ietf.org/html/rfc4122" />
                <value value="ba40fc7a-07a3-454e-bd74-4c1a57ea255a" />
              </identifier>
              <status value="final" />
              <type>
                <coding>
                  <system value="http://snomed.info/sct" />
                  <code value="41000179103" />
                  <display value="Immunization record" />
                </coding>
              </type>
              <subject>
                <reference value="urn:uuid:4d0e5c7a-2f0a-4ce4-8ab2-35ec960b1a75" />
              </subject>
              <encounter>
                <reference value="urn:uuid:a807d9eb-ab18-4f5e-a323-ef9c6efeff0c" />
              </encounter>
              <date value="2021-04-14" />
              <author>
                <reference value="urn:uuid:8dffa561-2481-490a-b24a-0b6f65dc814e" />
              </author>
              <title value="COVID-19 Vaccination Record" />
              <custodian>
                <reference value="urn:uuid:b5608427-b313-4c72-96e8-b2a8fb35ad31" />
              </custodian>
              <section>
                <title value="Allergies and adverse reactions" />
                <code>
                  <coding>
                    <system value="http://snomed.info/sct" />
                    <code value="886921000000105" />
                    <display value="Allergies and adverse reactions" />
                  </coding>
                </code>
                <text>
                  <status value="additional" />
                  <div xmlns="http://www.w3.org/1999/xhtml">
                    <table width="100%">
                      <tbody>
                        <tr>
                          <th>Causative agent</th>
                          <td>COVID-19 mRNA (nucleoside modified) Vaccine Moderna 0.1mg/0.5mL dose dispersion for injection multidose vials (Moderna, Inc)</td>
                        </tr>
                        <tr>
                          <th>Description of reaction</th>
                          <td>described feeling all whoozy</td>
                        </tr>
                        <tr>
                          <th>SNOMED Code of reaction</th>
                          <td>404640003 (Dizziness (finding))</td>
                        </tr>
                        <tr>
                          <th>Severity</th>
                          <td>mild</td>
                        </tr>
                        <tr>
                          <th>Certainty</th>
                          <td>unconfirmed</td>
                        </tr>
                        <tr>
                          <th>Date recorded</th>
                          <td>21 Dec 2020</td>
                        </tr>
                      </tbody>
                    </table>
                    <table width="100%">
                      <tbody>
                        <tr>
                          <th>Causative agent</th>
                          <td>COVID-19 mRNA (nucleoside modified) Vaccine Moderna 0.1mg/0.5mL dose dispersion for injection multidose vials (Moderna, Inc)</td>
                        </tr>
                        <tr>
                          <th>Description of reaction</th>
                          <td>looked a bit damp</td>
                        </tr>
                        <tr>
                          <th>SNOMED Code of reaction</th>
                          <td>16514006 (Moist skin (finding))</td>
                        </tr>
                        <tr>
                          <th>Severity</th>
                          <td>severe</td>
                        </tr>
                        <tr>
                          <th>Certainty</th>
                          <td>unconfirmed</td>
                        </tr>
                        <tr>
                          <th>Date recorded</th>
                          <td>21 Dec 2020</td>
                        </tr>
                      </tbody>
                    </table>
                  </div>
                </text>
                <entry>
                  <reference value="urn:uuid:7ac9fcf5-2719-4b2d-bedd-adc89654bf1e" />
                </entry>
              </section>
              <section>
                <title value="Consent" />
                <code>
                  <coding>
                    <system value="http://snomed.info/sct" />
                    <code value="61861000000100" />
                    <display value="Consent" />
                  </coding>
                </code>
                <text>
                  <status value="additional" />
                  <div xmlns="http://www.w3.org/1999/xhtml">
                    <table width="100%">
                      <tbody>
                        <tr>
                          <th>Consent for treatment record</th>
                          <td>Patient consented to be given the vaccination</td>
                        </tr>
                      </tbody>
                    </table>
                  </div>
                </text>
              </section>
              <section>
                <title value="GP practice" />
                <code>
                  <coding>
                    <system value="http://snomed.info/sct" />
                    <code value="886711000000101" />
                    <display value="GP practice" />
                  </coding>
                </code>
                <text>
                  <status value="additional" />
                  <div xmlns="http://www.w3.org/1999/xhtml">
                    <table width="100%">
                      <tbody>
                        <tr>
                          <th>GP practice identifier</th>
                          <td>
                            <p>ODS Site Code: B86057</p>
                          </td>
                        </tr>
                        <tr>
                          <th>GP practice details</th>
                          <td>
                            <p>GP practice name: WINDSOR HOUSE GROUP PRACTICE</p>
                          </td>
                        </tr>
                      </tbody>
                    </table>
                  </div>
                </text>
                <entry>
                  <reference value="urn:uuid:b5608427-b313-4c72-96e8-b2a8fb35ad31" />
                </entry>
              </section>
              <section>
                <title value="Vaccinations" />
                <code>
                  <coding>
                    <system value="http://snomed.info/sct" />
                    <code value="1102181000000102" />
                    <display value="Immunisations" />
                  </coding>
                </code>
                <text>
                  <status value="additional" />
                  <div xmlns="http://www.w3.org/1999/xhtml">
                    <table width="100%">
                      <tbody>
                        <tr>
                          <th>Vaccine product</th>
                          <td>COVID-19 mRNA (nucleoside modified) Vaccine Moderna 0.1mg/0.5mL dose dispersion for injection multidose vials - Moderna, Inc</td>
                          <td>39326911000001101</td>
                        </tr>
                        <tr>
                          <th>Manufacturer</th>
                          <td>Moderna</td>
                        </tr>
                        <tr>
                          <th>Batch number</th>
                          <td>GH56565</td>
                        </tr>
                        <tr>
                          <th>Expiry date</th>
                          <td>22 Dec 2020</td>
                        </tr>
                      </tbody>
                    </table>
                    <table width="100%">
                      <tbody>
                        <tr>
                          <th>Vaccine procedure</th>
                          <td>Administration of first dose of SARS-CoV-2 (severe acute respiratory syndrome coronavirus 2) vaccine</td>
                          <td>1324681000000101</td>
                        </tr>
                        <tr>
                          <th>Site</th>
                          <td>Left upper arm structure (body structure)</td>
                          <td>368208006</td>
                        </tr>
                        <tr>
                          <th>Route</th>
                          <td>Intramuscular Route (qualifier value)</td>
                          <td>78421000</td>
                        </tr>
                        <tr>
                          <th>Indication</th>
                          <td>Disease outbreak (event)</td>
                          <td>443684005</td>
                        </tr>
                        <tr>
                          <th>Dose</th>
                          <td>1 dose</td>
                          <td>3317411000001100</td>
                        </tr>
                        <tr>
                          <th>Date Time</th>
                          <td>21-Dec-2020 12:34 (GMT)</td>
                        </tr>
                        <tr>
                          <th>Administered by</th>
                          <td>Emma Hewitt</td>
                        </tr>
                        <tr>
                          <th>GPHC identifier</th>
                          <td>44636</td>
                        </tr>
                      </tbody>
                    </table>
                  </div>
                </text>
                <entry>
                  <reference value="urn:uuid:05b2add4-c00d-47da-9035-399e3e8adb58" />
                </entry>
              </section>
              <section>
                <title value="Patient demographics" />
                <code>
                  <coding>
                    <system value="http://snomed.info/sct" />
                    <code value="886731000000109" />
                    <display value="Patient demographics" />
                  </coding>
                </code>
                <text>
                  <status value="additional" />
                  <div xmlns="http://www.w3.org/1999/xhtml">
                    <table width="100%">
                      <tbody>
                        <tr>
                          <th>Patient name</th>
                          <td>
                            <p>Given Name: GEORGE</p>
                            <p>Family Name: CHAPMAN</p>
                          </td>
                        </tr>
                        <tr>
                          <th>Date of birth</th>
                          <td>22 August 1976</td>
                        </tr>
                        <tr>
                          <th>Sex</th>
                          <td>Male</td>
                        </tr>
                        <tr>
                          <th>NHS Number</th>
                          <td>9223344867</td>
                        </tr>
                        <tr>
                          <th>Patient address</th>
                          <td>
                            <p>SA2 8AN</p>
                          </td>
                        </tr>
                      </tbody>
                    </table>
                  </div>
                </text>
                <entry>
                  <reference value="urn:uuid:4d0e5c7a-2f0a-4ce4-8ab2-35ec960b1a75" />
                </entry>
              </section>
            </Composition>
          </resource>
        </entry>
        <entry>
          <fullUrl value="urn:uuid:4d0e5c7a-2f0a-4ce4-8ab2-35ec960b1a75" />
          <resource>
            <Patient xmlns="http://hl7.org/fhir">
              <id value="4d0e5c7a-2f0a-4ce4-8ab2-35ec960b1a75" />
              <meta>
                <profile value="https://fhir.hl7.org.uk/STU3/StructureDefinition/CareConnect-Patient-1" />
              </meta>
              <identifier>
                <extension url="https://fhir.hl7.org.uk/STU3/StructureDefinition/Extension-CareConnect-NHSNumberVerificationStatus-1">
                  <valueCodeableConcept>
                    <coding>
                      <system value="https://fhir.hl7.org.uk/STU3/CodeSystem/CareConnect-NHSNumberVerificationStatus-1" />
                      <code value="01" />
                      <display value="Number present and verified" />
                    </coding>
                  </valueCodeableConcept>
                </extension>
                <system value="https://fhir.nhs.uk/Id/nhs-number" />
                <value value="9223344867" />
              </identifier>
              <name>
                <use value="official" />
                <family value="CHAPMAN" />
                <given value="GEORGE" />
              </name>
              <gender value="male" />
              <birthDate value="1976-08-22" />
              <address>
                <use value="home" />
                <postalCode value="SA2 8AN" />
              </address>
              <generalPractitioner>
                <reference value="urn:uuid:b5608427-b313-4c72-96e8-b2a8fb35ad31" />
              </generalPractitioner>
            </Patient>
          </resource>
        </entry>
        <entry>
          <fullUrl value="urn:uuid:8dffa561-2481-490a-b24a-0b6f65dc814e" />
          <resource>
            <Practitioner>
              <id value="8dffa561-2481-490a-b24a-0b6f65dc814e" />
              <meta>
                <profile value="https://fhir.hl7.org.uk/STU3/StructureDefinition/CareConnect-Practitioner-1" />
              </meta>
              <identifier>
                <system value="https://fhir.hl7.org.uk/Id/gphc-number" />
                <value value="44636" />
              </identifier>
              <name>
                <use value="official" />
                <family value="Hewitt" />
                <given value="Emma" />
              </name>
            </Practitioner>
          </resource>
        </entry>
        <entry>
          <fullUrl value="urn:uuid:05b2add4-c00d-47da-9035-399e3e8adb58" />
          <resource>
            <Immunization>
              <id value="05b2add4-c00d-47da-9035-399e3e8adb58" />
              <meta>
                <profile value="https://fhir.nhs.uk/STU3/StructureDefinition/CareConnect-ITK-DM-Immunization-1" />
              </meta>
              <extension url="https://fhir.hl7.org.uk/STU3/StructureDefinition/Extension-CareConnect-DateRecorded-1">
                <valueDateTime value="2020-12-21T00:00:00+00:00" />
              </extension>
              <extension url="https://fhir.hl7.org.uk/STU3/StructureDefinition/Extension-CareConnect-VaccinationProcedure-1">
                <valueCodeableConcept>
                  <coding>
                    <system value="http://snomed.info/sct" />
                    <code value="1324681000000101" />
                    <display value="Administration of first dose of SARS-CoV-2 (severe acute respiratory syndrome coronavirus 2) vaccine" />
                  </coding>
                </valueCodeableConcept>
              </extension>
              <identifier>
                <system value="https://example.com/identifier/digital-medicines/vaccination" />
                <value value="foo" />
              </identifier>
              <status value="completed" />
              <notGiven value="false" />
              <vaccineCode>
                <coding>
                  <system value="http://snomed.info/sct" />
                  <code value="39326911000001101" />
                  <display value="COVID-19 mRNA (nucleoside modified) Vaccine Moderna 0.1mg/0.5mL dose dispersion for injection multidose vials - Moderna, Inc" />
                </coding>
              </vaccineCode>
              <patient>
                <reference value="urn:uuid:4d0e5c7a-2f0a-4ce4-8ab2-35ec960b1a75" />
                <display value="CHAPMAN, George" />
              </patient>
              <encounter>
                <reference value="urn:uuid:a807d9eb-ab18-4f5e-a323-ef9c6efeff0c" />
              </encounter>
              <date value="2020-12-21T12:34:44+00:00" />
              <primarySource value="true" />
              <manufacturer>
                <reference value="urn:uuid:f653edb4-6de5-4eef-bab3-bc9ffadfe2e0" />
                <display value="Moderna" />
              </manufacturer>
              <lotNumber value="GH56565" />
              <expirationDate value="2020-12-22" />
              <site>
                <coding>
                  <system value="http://snomed.info/sct" />
                  <code value="368208006" />
                  <display value="Left upper arm structure (body structure)" />
                </coding>
              </site>
              <route>
                <coding>
                  <system value="http://snomed.info/sct" />
                  <code value="78421000" />
                  <display value="Intramuscular Route (qualifier value)" />
                </coding>
              </route>
              <doseQuantity>
                <value value="1" />
                <unit value="dose" />
                <system value="http://snomed.info/sct" />
                <code value="3317411000001100" />
              </doseQuantity>
              <practitioner>
                <role>
                  <coding>
                    <system value="http://hl7.org/fhir/v2/0443" />
                    <code value="AP" />
                    <display value="Administering Provider" />
                  </coding>
                </role>
                <actor>
                  <reference value="urn:uuid:8dffa561-2481-490a-b24a-0b6f65dc814e" />
                </actor>
              </practitioner>
              <explanation>
                <reason>
                  <coding>
                    <system value="http://snomed.info/sct" />
                    <code value="443684005" />
                    <display value="Disease outbreak (event)" />
                  </coding>
                </reason>
              </explanation>
            </Immunization>
          </resource>
        </entry>
        <entry>
          <fullUrl value="urn:uuid:b5608427-b313-4c72-96e8-b2a8fb35ad31" />
          <resource>
            <Organization>
              <id value="b5608427-b313-4c72-96e8-b2a8fb35ad31" />
              <meta>
                <profile value="https://fhir.hl7.org.uk/STU3/StructureDefinition/CareConnect-Organization-1" />
              </meta>
              <identifier>
                <system value="https://fhir.nhs.uk/Id/ods-organization-code" />
                <value value="B86057" />
              </identifier>
              <name value="WINDSOR HOUSE GROUP PRACTICE" />
            </Organization>
          </resource>
        </entry>
        <entry>
          <fullUrl value="urn:uuid:f653edb4-6de5-4eef-bab3-bc9ffadfe2e0" />
          <resource>
            <Organization>
              <id value="f653edb4-6de5-4eef-bab3-bc9ffadfe2e0" />
              <meta>
                <profile value="https://fhir.hl7.org.uk/STU3/StructureDefinition/CareConnect-Organization-1" />
              </meta>
              <name value="Moderna" />
            </Organization>
          </resource>
        </entry>
        <entry>
          <fullUrl value="urn:uuid:a807d9eb-ab18-4f5e-a323-ef9c6efeff0c" />
          <resource>
            <Encounter>
              <id value="a807d9eb-ab18-4f5e-a323-ef9c6efeff0c" />
              <meta>
                <profile value="https://fhir.nhs.uk/STU3/StructureDefinition/CareConnect-ITK-Encounter-1" />
              </meta>
              <status value="finished" />
              <subject>
                <reference value="urn:uuid:4d0e5c7a-2f0a-4ce4-8ab2-35ec960b1a75" />
              </subject>
              <participant>
                <type>
                  <coding>
                    <system value="http://hl7.org/fhir/v3/ParticipationType" />
                    <code value="PPRF" />
                    <display value="primary performer" />
                  </coding>
                </type>
                <individual>
                  <reference value="urn:uuid:8dffa561-2481-490a-b24a-0b6f65dc814e" />
                </individual>
              </participant>
              <period>
                <start value="2020-12-21T12:34:44+00:00" />
              </period>
              <serviceProvider>
                <reference value="urn:uuid:871e1e07-af23-4669-af6c-e03a534c7fde" />
              </serviceProvider>
            </Encounter>
          </resource>
        </entry>
        <entry>
          <fullUrl value="urn:uuid:871e1e07-af23-4669-af6c-e03a534c7fde" />
          <resource>
            <Organization>
              <id value="871e1e07-af23-4669-af6c-e03a534c7fde" />
              <meta>
                <profile value="https://fhir.hl7.org.uk/STU3/StructureDefinition/CareConnect-Organization-1" />
              </meta>
              <identifier>
                <system value="https://fhir.nhs.uk/Id/ods-organization-code" />
                <value value="RVVKC" />
              </identifier>
              <name value="KENT &amp; CANTERBURY HOSPITAL" />
            </Organization>
          </resource>
        </entry>
        <entry>
          <fullUrl value="urn:uuid:7ac9fcf5-2719-4b2d-bedd-adc89654bf1e" />
          <resource>
            <List>
              <id value="7ac9fcf5-2719-4b2d-bedd-adc89654bf1e" />
              <meta>
                <profile value="https://fhir.nhs.uk/STU3/StructureDefinition/CareConnect-ITK-Allergy-List-1" />
              </meta>
              <identifier>
                <system value="https://tools.ietf.org/html/rfc4122" />
                <value value="7ac9fcf5-2719-4b2d-bedd-adc89654bf1e" />
              </identifier>
              <status value="current" />
              <mode value="snapshot" />
              <code>
                <coding>
                  <system value="http://snomed.info/sct" />
                  <code value="886921000000105" />
                  <display value="Allergies and adverse reactions" />
                </coding>
              </code>
              <subject>
                <reference value="urn:uuid:4d0e5c7a-2f0a-4ce4-8ab2-35ec960b1a75" />
                <display value="CHAPMAN, George" />
              </subject>
              <encounter>
                <reference value="urn:uuid:a807d9eb-ab18-4f5e-a323-ef9c6efeff0c" />
              </encounter>
              <source>
                <reference value="urn:uuid:8dffa561-2481-490a-b24a-0b6f65dc814e" />
                <display value="HEWITT, Emma" />
              </source>
              <entry>
                <item>
                  <reference value="urn:uuid:0b8a397b-4e7e-4297-a1dd-f75bec62b247" />
                </item>
              </entry>
              <entry>
                <item>
                  <reference value="urn:uuid:07630115-9a30-4a2c-b78a-f9bd4a481dd2" />
                </item>
              </entry>
            </List>
          </resource>
        </entry>
        <entry>
          <fullUrl value="urn:uuid:0b8a397b-4e7e-4297-a1dd-f75bec62b247" />
          <resource>
            <AllergyIntolerance>
              <id value="0b8a397b-4e7e-4297-a1dd-f75bec62b247" />
              <meta>
                <profile value="https://fhir.nhs.uk/STU3/StructureDefinition/CareConnect-ITK-AllergyIntolerance-1" />
              </meta>
              <identifier>
                <system value="https://example.com/identifier/digital-medicines/vaccination" />
                <value value="bar" />
              </identifier>
              <clinicalStatus value="active" />
              <verificationStatus value="unconfirmed" />
              <type value="allergy" />
              <code>
                <coding>
                  <system value="http://snomed.info/sct" />
                  <code value="39326911000001101" />
                  <display value="COVID-19 mRNA (nucleoside modified) Vaccine Moderna 0.1mg/0.5mL dose dispersion for injection multidose vials (Moderna, Inc)" />
                </coding>
              </code>
              <patient>
                <reference value="urn:uuid:4d0e5c7a-2f0a-4ce4-8ab2-35ec960b1a75" />
                <display value="CHAPMAN, George" />
              </patient>
              <assertedDate value="2020-12-21" />
              <reaction>
                <manifestation>
                  <coding>
                    <system value="http://snomed.info/sct" />
                    <code value="404640003" />
                    <display value="Dizziness (finding)" />
                  </coding>
                </manifestation>
                <description value="described feeling all whoozy" />
                <onset value="2020-12-21T00:00:00+00:00" />
                <severity value="mild" />
              </reaction>
            </AllergyIntolerance>
          </resource>
        </entry>
        <entry>
          <fullUrl value="urn:uuid:07630115-9a30-4a2c-b78a-f9bd4a481dd2" />
          <resource>
            <AllergyIntolerance>
              <id value="07630115-9a30-4a2c-b78a-f9bd4a481dd2" />
              <meta>
                <profile value="https://fhir.nhs.uk/STU3/StructureDefinition/CareConnect-ITK-AllergyIntolerance-1" />
              </meta>
              <identifier>
                <system value="https://example.com/identifier/digital-medicines/vaccination" />
                <value value="baz" />
              </identifier>
              <clinicalStatus value="active" />
              <verificationStatus value="unconfirmed" />
              <type value="intolerance" />
              <code>
                <coding>
                  <system value="http://snomed.info/sct" />
                  <code value="39326911000001101" />
                  <display value="COVID-19 mRNA (nucleoside modified) Vaccine Moderna 0.1mg/0.5mL dose dispersion for injection multidose vials (Moderna, Inc)" />
                </coding>
              </code>
              <patient>
                <reference value="urn:uuid:4d0e5c7a-2f0a-4ce4-8ab2-35ec960b1a75" />
                <display value="CHAPMAN, George" />
              </patient>
              <assertedDate value="2020-12-21" />
              <reaction>
                <manifestation>
                  <coding>
                    <system value="http://snomed.info/sct" />
                    <code value="16514006" />
                    <display value="Moist skin (finding)" />
                  </coding>
                </manifestation>
                <description value="looked a bit damp" />
                <onset value="2020-12-21T00:00:00+00:00" />
                <severity value="severe" />
              </reaction>
            </AllergyIntolerance>
          </resource>
        </entry>
      </Bundle>
    </resource>
  </entry>
</Bundle>