<Bundle xmlns="http://hl7.org/fhir">
    <id value="8e5fc76d-e1cf-4004-b4b3-5717a5807e86" />
    <meta>
        <versionId value="1.1.0" />
        <lastUpdated value="2024-08-20T11:30:00.8185338+00:00" />
        <profile value="https://fhir.nhs.uk/StructureDefinition/BARSBundleMessage" />
    </meta>
    <type value="message" />
    <timestamp value="2024-08-20T11:30:00+00:00" />
    <entry>
        <fullUrl value="urn:uuid:c89a8895-56fe-41de-b20b-fab6efa99c99" />
        <resource>
            <MessageHeader>
                <meta>
                    <lastUpdated value="2024-08-20T11:30:00.8185338+00:00" />
                    <profile value="https://fhir.nhs.uk/StructureDefinition/BARSMessageHeader-servicerequest-request" />
                </meta>
                <extension url="https://fhir.nhs.uk/StructureDefinition/CDSSExtension">
                    <extension url="RequesterCDSSsoftware">
                        <valueString value="CDSS Assessment Tool" />
                    </extension>
                    <extension url="RequesterCDSSversion">
                        <valueString value="1.2.0" />
                    </extension>
                </extension>
                <eventCoding>
                    <system value="https://fhir.nhs.uk/CodeSystem/message-events-bars" />
                    <code value="servicerequest-request" />
                </eventCoding>
                <destination>
                    <endpoint value="https://fhir.nhs.uk/Id/dos-service-id|111111111" />
                    <!--        Sender to populate with the system (of the DoS used) and Service Identity value        -->
                    <receiver>
                        <!--        Organization        -->
                        <reference value="urn:uuid:d5ffd0cd-ec7e-48a1-84f1-91f4c0eb8fc5" />
                    </receiver>
                </destination>
                <sender>
                    <!--        Organization        -->
                    <reference value="urn:uuid:07939a0c-2854-46ff-9282-ad906bc93679" />
                </sender>
                <source>
                    <name value="Emergency service" />
                    <software value="Anon Patient Manager" />
                    <version value="2.1.45" />
                    <contact>
                        <system value="phone" />
                        <value value="+44 (0113) 123 4567" />
                    </contact>
                    <endpoint value="https://fhir.nhs.uk/Id/dos-service-id|2222222222" />
                    <!--        The Sender must populate the 'NHSD-Target-Identifier' header value a Receiver needs to populate in order to send a response to them via the BaRS API e.g. 'system value(URL):Service-TargetIdentifer'       -->
                </source>
                <reason>
                    <coding>
                        <system value="https://fhir.nhs.uk/CodeSystem/message-reason-bars" />
                        <code value="new" />
                    </coding>
                </reason>
                <focus>
                    <!--      ServiceRequest      -->
                    <reference value="urn:uuid:236bb75d-90ef-461f-b71e-fde7f899802c" />
                </focus>
                <definition value="https://fhir.nhs.uk/MessageDefinition/bars-message-servicerequest-request-referral" />
            </MessageHeader>
        </resource>
    </entry>
    <entry>
        <fullUrl value="urn:uuid:236bb75d-90ef-461f-b71e-fde7f899802c" />
        <resource>
            <ServiceRequest>
                <meta>
                    <lastUpdated value="2024-08-20T11:30:00.8185338+00:00" />
                    <profile value="https://fhir.nhs.uk/StructureDefinition/BARSServiceRequest-request-referral" />
                </meta>
                <basedOn>
                    <!--       Always CarePlan       -->
                    <reference value="urn:uuid:38e9c018-adbb-4579-9cd8-45f4f890b93b" />
                </basedOn>
                <!--       used to drive workflow e.g. cancel/remove       -->
                <status value="active" />
                <!--        required and always set to 'plan'       -->
                <intent value="plan" />
                <category>
                    <coding>
                        <!--        workflow category       -->
                        <system value="https://fhir.nhs.uk/CodeSystem/message-category-servicerequest" />
                        <code value="referral" />
                        <!--     Important for driving workflow, determining the type of referral being requested     -->
                        <display value="Transfer of Care" />
                    </coding>
                    <coding>
                        <!--        Use case category       -->
                        <system value="https://fhir.nhs.uk/CodeSystem/usecases-categories-bars" />
                        <code value="a5t2" />
                        <display value="Primary Care to Pharmacy Contraception" />
                    </coding>
                </category>
                <subject>
                    <reference value="urn:uuid:9589fb37-87a2-48d8-968f-b371429208a8" />
                </subject>
                <encounter>
                    <reference value="urn:uuid:8c63d621-4d86-4f57-8699-e8e22d49935d" />
                </encounter>
                <occurrencePeriod>
                    <start value="2024-08-20T11:30:00+00:00" />
                    <end value="2024-08-20T11:30:00+00:00" />
                </occurrencePeriod>
                <authoredOn value="2024-08-20T11:30:00+00:00" />
                <requester>
                    <!--       Sending Practitioner        -->
                    <reference value="urn:uuid:7d948662-bade-450e-b6c5-9bb6ee39cb56" />
                </requester>
                <performer>
                    <!--        Receiving/performing Organization/HealthcareService        -->
                    <reference value="urn:uuid:94267a2d-75b3-44d9-8d46-d65b36332a31" />
                </performer>
            </ServiceRequest>
        </resource>
    </entry>
    <entry>
        <fullUrl value="urn:uuid:8c63d621-4d86-4f57-8699-e8e22d49935d" />
        <resource>
            <Encounter>
                <meta>
                    <lastUpdated value="2024-08-20T11:30:00.8185338+00:00" />
                    <profile value="https://fhir.hl7.org.uk/StructureDefinition/UKCore-Encounter" />
                </meta>
                <identifier>
                    <system value="https://sender.url/Id/case-number" />
                    <!--  Set by the sender who is passing the business case number value  -->
                    <value value="sender1234" />
                </identifier>
                <status value="finished" />
                <class>
                    <system value="http://terminology.hl7.org/CodeSystem/v3-ActCode" />
                    <code value="EMER" />
                    <display value="emergency" />
                </class>
                <subject>
                    <reference value="urn:uuid:9589fb37-87a2-48d8-968f-b371429208a8" />
                </subject>
                <episodeOfCare>
                    <!--      Resource reference to an EpisodeOfCare Journey ID      -->
                    <reference value="EpisodeOfCare/d877b820-e72b-44d1-a627-195f54bfc606" />
                </episodeOfCare>
                <period>
                    <start value="2024-08-20T11:30:00+00:00" />
                </period>
            </Encounter>
        </resource>
    </entry>
    <entry>
        <fullUrl value="urn:uuid:38e9c018-adbb-4579-9cd8-45f4f890b93b" />
        <resource>
            <CarePlan>
                <meta>
                    <lastUpdated value="2024-08-20T11:30:00.8185338+00:00" />
                    <profile value="https://fhir.hl7.org.uk/StructureDefinition/UKCore-CarePlan" />
                </meta>
                <status value="completed" />
                <intent value="plan" />
                <subject>
                    <reference value="urn:uuid:9589fb37-87a2-48d8-968f-b371429208a8" />
                </subject>
                <encounter>
                    <reference value="urn:uuid:8c63d621-4d86-4f57-8699-e8e22d49935d" />
                </encounter>
                <addresses>
                    <reference value="urn:uuid:4b816945-a51b-47c4-9efd-4d7f94c8e8b4" />
                </addresses>
                <activity>
                    <outcomeCodeableConcept>
                        <text value="Who is this query about oral contraception about?: An adult or child over 10 years old\n Do any of the following apply to you?: None of the above\n\n Self-care / medication already tried: None\n\n Patient concerns: Running out of current oral contraception medication\n" />
                    </outcomeCodeableConcept>
                    <reference>
                        <reference value="urn:uuid:d0f8ec8e-0602-4d02-af8a-7b3cb72be5c0" />
                    </reference>
                </activity>
            </CarePlan>
        </resource>
    </entry>
    <entry>
        <fullUrl value="urn:uuid:c9abb059-f038-439d-b886-05e25423cdc9" />
        <resource>
			<Observation xmlns="http://hl7.org/fhir">
				<meta>
					<lastUpdated value="2024-08-20T17:00:00+00:00" />
					<profile value="https://fhir.hl7.org.uk/StructureDefinition/UKCore-Observation" />
				</meta>
				<status value="final" />
				<category>
					<coding>
						<system value="http://terminology.hl7.org/CodeSystem/observation-category" />
						<code value="vital-signs" />
						<display value="Vital Signs" />
					</coding>
					<text value="Vital Signs" />
				</category>
				<code>
					<coding>
						<system value="http://snomed.info/sct" />
						<code value="60621009" />
						<display value="Body mass index" />
					</coding>
					<coding>
						<system value="http://loinc.org" />
						<code value="39156-5" />
						<display value="Body mass index (BMI) [Ratio]" />
					</coding>
				</code>
				<subject>
					<reference value="urn:uuid:9589fb37-87a2-48d8-968f-b371429208a8" />
				</subject>
				<encounter>
					<reference value="urn:uuid:8c63d621-4d86-4f57-8699-e8e22d49935d" />
				</encounter>
				<effectiveDateTime value="2024-08-22T01:50:00+00:00" />
				<performer>
					<reference value="urn:uuid:7d948662-bade-450e-b6c5-9bb6ee39cb56" />
				</performer>
				<valueQuantity>
					<value value="46" />
					<unit value="kilogram / (meter ^ 2)" />
					<system value="http://unitsofmeasure.org" />
					<code value="kg/m2" />
				</valueQuantity>
			</Observation>
        </resource>
    </entry>
    <entry>
        <fullUrl value="urn:uuid:d0f8ec8e-0602-4d02-af8a-7b3cb72be5c0" />
        <resource>
            <Task>
                <id value="d0f8ec8e-0602-4d02-af8a-7b3cb72be5c0" />
                <meta>
                    <lastUpdated value="2024-08-20T11:30:00.8185338+00:00" />
                    <profile value="https://fhir.hl7.org.uk/StructureDefinition/UKCore-Task" />
                </meta>
                <status value="requested" />
                <intent value="order" />
                <code>
                    <coding>
                        <system value="http://snomed.info/sct" />
                        <code value="1659121000000100" />
                        <display value="Community Pharmacy Contraception Service (procedure)" />
                    </coding>
                </code>
                <description value="Patient will contact pharmacy service in 24 hours. If, upon receipt, the pharmacist has concerns over the patient&#39;s condition they should contact the patient." />
                <authoredOn value="2024-08-20T11:30:00.259000+00:00" />
            </Task>
        </resource>
    </entry>
    <entry>
        <fullUrl value="urn:uuid:4b816945-a51b-47c4-9efd-4d7f94c8e8b4" />
        <resource>
            <Condition>
                <id value="4b816945-a51b-47c4-9efd-4d7f94c8e8b4" />
                <meta>
                    <lastUpdated value="2024-08-20T11:30:00.8185338+00:00" />
                    <profile value="https://fhir.hl7.org.uk/StructureDefinition/UKCore-Condition" />
                </meta>
                <clinicalStatus>
                    <coding>
                        <system value="http://terminology.hl7.org/CodeSystem/condition-clinical" />
                        <code value="active" />
                    </coding>
                </clinicalStatus>
                <verificationStatus>
                    <coding>
                        <system value="http://terminology.hl7.org/CodeSystem/condition-ver-status" />
                        <code value="provisional" />
                    </coding>
                </verificationStatus>
                <category>
                    <coding>
                        <system value="http://snomed.info/sct" />
                        <code value="33962009" />
                        <display value="Presenting complaint" />
                    </coding>
                </category>
                <code>
                    <text value="Low on medication" />
                </code>
                <subject>
                    <reference value="urn:uuid:9589fb37-87a2-48d8-968f-b371429208a8" />
                </subject>
                <encounter>
                    <reference value="urn:uuid:8c63d621-4d86-4f57-8699-e8e22d49935d" />
                </encounter>
                <onsetDateTime value="2024-08-20" />
            </Condition>
        </resource>
    </entry>
	<entry>
        <fullUrl value="urn:uuid:119948b4-5a6e-4d63-8d65-fcdaee6daeca" />
		<resource>
            <MedicationStatement>
                <meta>
                    <lastUpdated value="2024-08-20T10:23:30.8185338+00:00" />
                    <profile value="https://fhir.hl7.org.uk/StructureDefinition/UKCore-MedicationStatement" />
                </meta>
                <status value="active" />
                <category>
                    <coding>
                        <system value="http://terminology.hl7.org/CodeSystem/medication-statement-category" />
                        <code value="outpatient" />
                        <display value="Outpatient" />
                    </coding>
                </category>
                <medicationCodeableConcept>
                    <coding>
						<system value="https://dmd.nhs.uk" />
						<code value="17346711000001106" />
						<display value="Rigevidon tablets (Gedeon Richter (UK) Ltd)" />
                    </coding>
                </medicationCodeableConcept>
                <subject>
                    <reference value="urn:uuid:9589fb37-87a2-48d8-968f-b371429208a8" />
                </subject>
                <context>
                    <reference value="urn:uuid:8c63d621-4d86-4f57-8699-e8e22d49935d" />
                </context>
                <effectiveDateTime value="2021-09-23" />
                <dateAsserted value="2024-08-20" />
                <reasonCode>
                    <coding>
                        <system value="http://snomed.info/sct" />
                        <code value="339871000000104" />
                        <display value="Supply of combined oral contraception (procedure)" />
                    </coding>
                </reasonCode>
                <dosage>
                    <text value="One tablet is to be taken daily for 21 consecutive days starting day 1 of menstrual cycle. Do not take the tablets between day 22 to day 28." />
                    <patientInstruction value="One tablet is to be taken daily for 21 consecutive days starting day 1 of menstrual cycle. Do not take the tablets between day 22 to day 28." />          
                    <timing>
                        <repeat>
                            <frequency value="1" />
                            <period value="1" />
                            <periodUnit value="d" />
                        </repeat>
                    </timing>
                    <site>
                        <coding>
                            <system value="http://snomed.info/sct" />
                            <code value="123851003" />
                            <display value="Mouth region structure" />
                        </coding>
                    </site>
                    <route>
                        <coding>
                            <system value="http://snomed.info/sct" />
                            <code value="26643006" />
                            <display value="Oral" />
                        </coding>
                    </route>
                    <method>
                        <coding>
                            <system value="http://snomed.info/sct" />
                            <code value="421984009" />
                            <display value="Until finished" />
                        </coding>
                    </method>
                    <doseAndRate>
                        <doseQuantity>
                            <value value="150" />
                            <unit value="micrograms" />
                            <system value="http://unitsofmeasure.org" />
                            <code value="mg" />
                        </doseQuantity>
                    </doseAndRate>
					<maxDosePerPeriod>
						<numerator>
							<value value="21" />
							<unit value="Tablet" />
							<system value="http://snomed.info/sct" />
							<code value="428673006" />
						</numerator>
						<denominator>
							<value value="28" />
							<unit value="day" />
							<system value="http://unitsofmeasure.org" />
							<code value="d" />
						</denominator>
					</maxDosePerPeriod>
                </dosage>
            </MedicationStatement>
        </resource>
    </entry>
    <entry>
        <fullUrl value="urn:uuid:9589fb37-87a2-48d8-968f-b371429208a8" />
        <resource>
            <Patient>
                <meta>
                    <lastUpdated value="2024-08-20T11:30:00.8185338+00:00" />
                    <profile value="https://fhir.hl7.org.uk/StructureDefinition/UKCore-Patient" />
                </meta>
                <!--       added EthnicCategory extension       -->
                <extension url="https://fhir.hl7.org.uk/StructureDefinition/Extension-UKCore-EthnicCategory">
                    <valueCodeableConcept>
                        <coding>
                            <system value="https://fhir.hl7.org.uk/CodeSystem/UKCore-EthnicCategory" />
                            <code value="A" />
                            <display value="British, Mixed British" />
                        </coding>
                    </valueCodeableConcept>
                </extension>
                <!--       added Religion extension       -->
                <extension url="http://hl7.org/fhir/StructureDefinition/patient-religion">
                    <valueCodeableConcept>
                        <coding>
                            <system value="http://terminology.hl7.org/CodeSystem/v3-ReligiousAffiliation" />
                            <code value="1041" />
                            <display value="Roman Catholic Church" />
                        </coding>
                    </valueCodeableConcept>
                </extension>
                <identifier>
                    <extension url="https://fhir.hl7.org.uk/StructureDefinition/Extension-UKCore-NHSNumberVerificationStatus">
                        <valueCodeableConcept>
                            <coding>
                                <system value="https://fhir.hl7.org.uk/CodeSystem/UKCore-NHSNumberVerificationStatus" />
                                <code value="number-present-and-verified" />
                                <display value="Number present and verified" />
                            </coding>
                        </valueCodeableConcept>
                    </extension>
                    <system value="https://fhir.nhs.uk/Id/nhs-number" />
                    <value value="3478526985" />
                </identifier>
                <name>
                    <use value="official" />
                    <text value="Mrs Julie Jones" />
                    <family value="Jones" />
                    <given value="Julie" />
                    <prefix value="Mrs" />
                </name>
                <gender value="female" />
                <birthDate value="1959-05-04" />
                <address>
                    <use value="home" />
                    <type value="both" />
                    <text value="22 Brightside Crescent, Overtown, West Yorkshire, LS10 4YU" />
                    <line value="22 Brightside Crescent" />
                    <city value="Overtown" />
                    <district value="West Yorkshire" />
                    <postalCode value="LS10 4YU" />
                </address>
                <contact>
                    <extension url="https://fhir.hl7.org.uk/StructureDefinition/Extension-UKCore-ContactRank">
                        <valuePositiveInt value="1" />
                    </extension>
                    <relationship>
                        <coding>
                            <!--        patient       -->
                            <system value="http://terminology.hl7.org/CodeSystem/v3-RoleCode" />
                            <code value="ONESELF" />
                            <display value="self" />
                        </coding>
                    </relationship>
                    <telecom>
                        <system value="phone" />
                        <value value="01138698975" />
                        <use value="home" />
                        <rank value="2" />
                    </telecom>
                    <telecom>
                        <system value="phone" />
                        <value value="07736312544" />
                        <use value="mobile" />
                        <rank value="1" />
                    </telecom>
                    <telecom>
                        <system value="email" />
                        <value value="jjones@hotmail.co.uk" />
                        <use value="home" />
                        <rank value="3" />
                    </telecom>
                </contact>
                <contact>
                    <extension url="https://fhir.hl7.org.uk/StructureDefinition/Extension-UKCore-ContactRank">
                        <valuePositiveInt value="2" />
                    </extension>
                    <relationship>
                        <coding>
                            <!--        Emergency contact person       -->
                            <system value="http://terminology.hl7.org/CodeSystem/v3-RoleCode" />
                            <code value="ECON" />
                            <display value="emergency contact" />
                        </coding>
                    </relationship>
                    <name>
                        <family value="Grayson" />
                        <given value="Jack" />
                    </name>
                    <telecom>
                        <system value="phone" />
                        <value value="0789 1234567" />
                        <use value="mobile" />
                        <rank value="1" />
                    </telecom>
                    <gender value="male" />
                </contact>
                <communication>
                    <language>
                        <coding>
                            <system value="https://fhir.hl7.org.uk/CodeSystem/UKCore-HumanLanguage" />
                            <code value="en" />
                            <display value="English" />
                        </coding>
                    </language>
                    <preferred value="true" />
                </communication>
                <generalPractitioner>
                    <reference value="urn:uuid:c8c21609-cb27-4958-8eb2-37c76f3def85" />
                </generalPractitioner>
            </Patient>
        </resource>
    </entry>
    <entry>
        <fullUrl value="urn:uuid:1e744e34-6bbb-4aa9-8b20-fa3bb91f9d8f" />
        <resource>
            <PractitionerRole>
                <meta>
                    <lastUpdated value="2024-08-20T11:30:00.8185338+00:00" />
                    <profile value="https://fhir.hl7.org.uk/StructureDefinition/UKCore-PractitionerRole" />
                </meta>
                <practitioner>
                    <reference value="urn:uuid:07dec093-be12-42f4-ade5-0d582d255ef1" />
                </practitioner>
                <organization>
                    <reference value="urn:uuid:c8c21609-cb27-4958-8eb2-37c76f3def85" />
                </organization>
                <specialty>
                    <coding>
                        <system value="http://snomed.info/sct" />
                        <code value="408443003" />
                        <display value="General medical practice" />
                    </coding>
                </specialty>
            </PractitionerRole>
        </resource>
    </entry>
    <entry>
        <fullUrl value="urn:uuid:b5e27389-3ca5-4cbc-9173-73f0c74915d9" />
        <resource>
            <Organization>
                <meta>
                    <lastUpdated value="2024-08-20T11:30:00.8185338+00:00" />
                    <profile value="https://fhir.hl7.org.uk/StructureDefinition/UKCore-Organization" />
                </meta>
                <name value="Practitioner Org" />
            </Organization>
        </resource>
    </entry>
    <entry>
        <fullUrl value="urn:uuid:c8c21609-cb27-4958-8eb2-37c76f3def85" />
        <resource>
            <Organization>
                <meta>
                    <lastUpdated value="2024-08-20T11:30:00.8185338+00:00" />
                    <profile value="https://fhir.hl7.org.uk/StructureDefinition/UKCore-Organization" />
                </meta>
                <identifier>
                    <system value="https://fhir.nhs.uk/id/ods-organization-code" />
                    <value value="G82080" />
                </identifier>
                <name value="Patient&#39;s Surgery" />
            </Organization>
        </resource>
    </entry>
    <entry>
        <fullUrl value="urn:uuid:07dec093-be12-42f4-ade5-0d582d255ef1" />
        <resource>
            <Practitioner>
                <meta>
                    <lastUpdated value="2024-08-20T11:30:00.8185338+00:00" />
                    <profile value="https://fhir.hl7.org.uk/StructureDefinition/UKCore-Practitioner" />
                </meta>
                <identifier>
                    <system value="https://fhir.nhs.uk/Id/sds-role-profile-id" />
                    <value value="G823658" />
                </identifier>
                <name>
                    <family value="Smith" />
                    <given value="John" />
                </name>
                <telecom>
                    <system value="phone" />
                    <value value="0205663859" />
                    <use value="work" />
                </telecom>
            </Practitioner>
        </resource>
    </entry>
    <entry>
        <fullUrl value="urn:uuid:d5ffd0cd-ec7e-48a1-84f1-91f4c0eb8fc5" />
        <resource>
            <Organization>
                <meta>
                    <lastUpdated value="2024-08-20T11:30:00.8185338+00:00" />
                    <profile value="https://fhir.hl7.org.uk/StructureDefinition/UKCore-Organization" />
                </meta>
                <identifier>
                    <system value="https://fhir.nhs.uk/id/ods-organization-code" />
                    <value value="RYE" />
                </identifier>
                <name value="Receiving/performing Organization" />
            </Organization>
        </resource>
    </entry>
    <entry>
        <fullUrl value="urn:uuid:07939a0c-2854-46ff-9282-ad906bc93679" />
        <resource>
            <Organization>
                <meta>
                    <lastUpdated value="2024-08-20T11:30:00.8185338+00:00" />
                    <profile value="https://fhir.hl7.org.uk/StructureDefinition/UKCore-Organization" />
                </meta>
                <identifier>
                    <system value="https://fhir.nhs.uk/id/ods-organization-code" />
                    <value value="RND" />
                </identifier>
				<type>
                    <coding>
                        <system value="http://snomed.info/sct" />
                        <code value="788007007" />
                        <display value="General practice service (qualifier value)" />
                    </coding>
                </type>
                <name value="Sender Organization" />
            </Organization>
        </resource>
    </entry>
    <entry>
        <fullUrl value="urn:uuid:7d948662-bade-450e-b6c5-9bb6ee39cb56" />
        <resource>
            <Practitioner>
                <meta>
                    <lastUpdated value="2024-08-20T11:30:00.8185338+00:00" />
                    <profile value="https://fhir.hl7.org.uk/StructureDefinition/UKCore-Practitioner" />
                </meta>
                <identifier>
                    <system value="https://fhir.nhs.uk/Id/sds-role-profile-id" />
                    <value value="PT2489" />
                </identifier>
                <name>
                    <family value="BLAKE" />
                    <given value="Marcy" />
                </name>
                <telecom>
                    <system value="phone" />
                    <value value="0205568263" />
                    <use value="work" />
                </telecom>
            </Practitioner>
        </resource>
    </entry>
    <entry>
        <fullUrl value="urn:uuid:b923aa53-2376-4015-a07d-afe8bf2310eb" />
        <resource>
            <PractitionerRole>
                <meta>
                    <lastUpdated value="2024-08-20T11:30:00.8185338+00:00" />
                    <profile value="https://fhir.hl7.org.uk/StructureDefinition/UKCore-PractitionerRole" />
                </meta>
                <practitioner>
                    <reference value="urn:uuid:7d948662-bade-450e-b6c5-9bb6ee39cb56" />
                </practitioner>
                <organization>
                    <reference value="urn:uuid:b5e27389-3ca5-4cbc-9173-73f0c74915d9" />
                </organization>
                <code>
                    <coding>
                        <system value="http://snomed.info/sct" />
                        <code value="224608005" />
                        <display value="Administrative healthcare staff" />
                    </coding>
                </code>
                <specialty>
                    <coding>
                        <system value="http://snomed.info/sct" />
                        <code value="408443003" />
                        <display value="General medical practice" />
                    </coding>
                </specialty>
            </PractitionerRole>
        </resource>
    </entry>
    <entry>
        <fullUrl value="urn:uuid:94267a2d-75b3-44d9-8d46-d65b36332a31" />
        <resource>
            <HealthcareService>
                <meta>
                    <lastUpdated value="2024-08-20T11:30:00.8185338+00:00" />
                    <profile value="http://hl7.org/fhir/StructureDefinition/HealthcareService" />
                    <profile value="https://fhir.hl7.org.uk/StructureDefinition/UKCore-HealthcareService" />
                </meta>
                <identifier>
                    <system value="http://fhir.nhs.uk/Id/dos-service-id" />
                    <value value="111111111" />
                </identifier>
                <active value="true" />
                <providedBy>
                    <reference value="urn:uuid:d5ffd0cd-ec7e-48a1-84f1-91f4c0eb8fc5" />
                </providedBy>
                <name value="Emergency Department - Adult" />
            </HealthcareService>
        </resource>
    </entry>
    <entry>
        <fullUrl value="urn:uuid:1e91008e-96d0-438b-873c-c6d2c007fc29" />
        <resource>
            <Consent>
                <meta>
                    <lastUpdated value="2024-08-20T11:30:00.8185338+00:00" />
                    <profile value="https://fhir.hl7.org.uk/StructureDefinition/UKCore-Consent" />
                </meta>
                <status value="active" />
                <scope>
                    <coding>
                        <system value="http://terminology.hl7.org/CodeSystem/consentscope" />
                        <code value="patient-privacy" />
                    </coding>
                </scope>
                <category>
                    <coding>
                        <system value="https://fhir.nhs.uk/CodeSystem/consent-categories-bars" />
                        <code value="DRC" />
                        <display value="Direct Care" />
                    </coding>
                </category>
                <patient>
                    <reference value="urn:uuid:9589fb37-87a2-48d8-968f-b371429208a8" />
                </patient>
                <dateTime value="2021-11-26" />
                <policyRule>
                    <coding>
                        <system value="http://terminology.hl7.org/CodeSystem/v3-ActCode" />
                        <code value="IMPLIED" />
                    </coding>
                </policyRule>
            </Consent>
        </resource>
    </entry>
</Bundle>