<Bundle xmlns="http://hl7.org/fhir">
  <id value="a961e68a-50e9-4988-9b14-4bfa4629d761" />
  <meta>
    <versionId value="1.1.0" />
    <lastUpdated value="2021-11-26T15:03:00.8185338+00:00" />
    <profile value="https://fhir.nhs.uk/StructureDefinition/BARSBundleMessage" />
  </meta>
  <type value="message" />
  <timestamp value="2021-11-26T15:03:00+00:00" />
  <entry>
    <fullUrl value="urn:uuid:1cbdfb97-5859-48a4-8301-d54eab818d68" />
    <resource>
      <MessageHeader>
        <meta>
          <lastUpdated value="2021-11-26T15:03:00.8185338+00:00" />
          <profile value="https://fhir.nhs.uk/StructureDefinition/BARSMessageHeader-servicerequest-request" />
        </meta>
        <extension url="https://fhir.nhs.uk/StructureDefinition/CDSSExtension">
          <extension url="RequesterCDSSsoftware">
            <valueString value="Pathways" />
          </extension>
          <extension url="RequesterCDSSversion">
            <valueString value="30.2.0" />
          </extension>
        </extension>
        <eventCoding>
          <system value="https://fhir.nhs.uk/CodeSystem/message-events-bars" />
          <code value="servicerequest-request" />
        </eventCoding>
        <destination>
          <endpoint value="https://fhir.nhs.uk/Id/dos-service-id|111111111" />
          <!--    Sender to populate with the system (of the DoS used) and Service Identity value    -->
          <receiver>
            <!--    Organization    -->
            <reference value="urn:uuid:10397afd-479c-42ea-9d5d-e4024481e0f8" />
          </receiver>
        </destination>
        <sender>
          <!--    Organization    -->
          <reference value="urn:uuid:07939a0c-2854-46ff-9282-ad906bc93679" />
        </sender>
        <source>
          <name value="Emergency service" />
          <software value="Patient Manager" />
          <version value="1.7" />
          <contact>
            <system value="phone" />
            <value value="+44 (0113) 123 4567" />
          </contact>
          <endpoint value="https://fhir.nhs.uk/Id/dos-service-id|2222222222" />
          <!--    The Sender must populate the 'NHSD-Target-Identifier' header value a Receiver needs to populate in order to send a response to them via the BaRS API e.g. 'system value(URL):Service-TargetIdentifer'   -->
        </source>
        <reason>
          <coding>
            <system value="https://fhir.nhs.uk/CodeSystem/message-reason-bars" />
            <code value="delete" />
          </coding>
        </reason>
        <focus>
          <!--    ServiceRequest    -->
          <reference value="urn:uuid:236bb75d-90ef-461f-b71e-fde7f899802c" />
        </focus>
      </MessageHeader>
    </resource>
  </entry>
  <entry>
    <fullUrl value="urn:uuid:236bb75d-90ef-461f-b71e-fde7f899802c" />
    <resource>
      <ServiceRequest>
        <meta>
          <lastUpdated value="2021-11-26T15:03:00.8185338+00:00" />
          <profile value="https://fhir.nhs.uk/StructureDefinition/BARSServiceRequest-request-validation" />
        </meta>
        <status value="entered-in-error" />
        <!--   used to drive workflow e.g. cancel/remove   -->
        <intent value="plan" />
        <!--    required and always set to 'plan'   -->
        <category>
          <coding>
            <system value="https://fhir.nhs.uk/CodeSystem/message-category-servicerequest" />
            <code value="validation" />
            <!--   Important for driving workflow, determining the type of referral being requested   -->
            <display value="For Validation" />
          </coding>
        </category>
        <subject>
          <reference value="urn:uuid:9589fb37-87a2-48d8-968f-b371429208a8" />
        </subject>
        <occurrencePeriod>
          <start value="2021-11-26T15:00:00+00:00" />
          <end value="2021-11-26T15:20:00+00:00" />
          <!--   'end' used a breach time for ambulance despatch   -->
        </occurrencePeriod>
      </ServiceRequest>
    </resource>
  </entry>
  <entry>
    <fullUrl value="urn:uuid:9589fb37-87a2-48d8-968f-b371429208a8" />
    <resource>
      <Patient>
        <meta>
          <lastUpdated value="2021-11-26T15:00:00.8185338+00:00" />
          <profile value="https://fhir.hl7.org.uk/StructureDefinition/UKCore-Patient" />
        </meta>
        <!--   added EthnicCategory extension   -->
        <extension url="https://fhir.hl7.org.uk/StructureDefinition/Extension-UKCore-EthnicCategory">
          <valueCodeableConcept>
            <coding>
              <system value="https://fhir.hl7.org.uk/CodeSystem/UKCore-EthnicCategory" />
              <code value="A" />
              <display value="British, Mixed British" />
            </coding>
          </valueCodeableConcept>
        </extension>
        <!--   added Religion extension   -->
        <extension url="http://hl7.org/fhir/StructureDefinition/patient-religion">
          <valueCodeableConcept>
            <coding>
              <system value="http://terminology.hl7.org/CodeSystem/v3-ReligiousAffiliation" />
              <code value="1041" />
              <display value="Roman Catholic Church" />
            </coding>
          </valueCodeableConcept>
        </extension>
        <identifier>
          <extension url="https://fhir.hl7.org.uk/StructureDefinition/Extension-UKCore-NHSNumberVerificationStatus">
            <valueCodeableConcept>
              <coding>
                <system value="https://fhir.hl7.org.uk/CodeSystem/UKCore-NHSNumberVerificationStatus" />
                <code value="number-present-and-verified" />
                <display value="Number present and verified" />
              </coding>
            </valueCodeableConcept>
          </extension>
          <system value="https://fhir.nhs.uk/Id/nhs-number" />
          <value value="3478526985" />
        </identifier>
        <name>
          <use value="official" />
          <text value="Mrs Julie Jones" />
          <family value="Jones" />
          <given value="Julie" />
          <prefix value="Mrs" />
        </name>
        <gender value="female" />
        <birthDate value="1959-05-04" />
        <address>
          <use value="home" />
          <type value="both" />
          <text value="22 Brightside Crescent, Overtown, West Yorkshire, LS10 4YU" />
          <line value="22 Brightside Crescent" />
          <city value="Overtown" />
          <district value="West Yorkshire" />
          <postalCode value="LS10 4YU" />
        </address>
        <contact>
          <extension url="https://fhir.hl7.org.uk/StructureDefinition/Extension-UKCore-ContactRank">
            <valuePositiveInt value="1" />
          </extension>
          <telecom>
            <system value="phone" />
            <value value="01138698975" />
            <use value="home" />
            <rank value="2" />
          </telecom>
          <telecom>
            <system value="phone" />
            <value value="07736312544" />
            <use value="mobile" />
            <rank value="1" />
          </telecom>
          <telecom>
            <system value="email" />
            <value value="jjones@hotmail.co.uk" />
            <use value="home" />
            <rank value="1" />
          </telecom>
        </contact>
        <contact>
          <relationship>
            <coding>
              <!--    Emergency contact person   -->
              <system value="http://terminology.hl7.org/CodeSystem/v2-0131" />
              <code value="EP" />
            </coding>
          </relationship>
          <name>
            <family value="Grayson" />
            <given value="Jack" />
          </name>
          <telecom>
            <system value="phone" />
            <value value="0789 1234567" />
            <rank value="3" />
          </telecom>
          <gender value="male" />
        </contact>
        <communication>
          <language>
            <coding>
              <system value="https://fhir.hl7.org.uk/CodeSystem/UKCore-HumanLanguage" />
              <code value="en" />
              <display value="English" />
            </coding>
          </language>
          <preferred value="true" />
        </communication>
      </Patient>
    </resource>
  </entry>
  <entry>
    <fullUrl value="urn:uuid:10397afd-479c-42ea-9d5d-e4024481e0f8" />
    <resource>
      <Organization>
        <meta>
          <lastUpdated value="2021-11-26T15:03:00.8185338+00:00" />
          <profile value="https://fhir.hl7.org.uk/StructureDefinition/UKCore-Organization" />
        </meta>
        <name value="Receiver Organization" />
      </Organization>
    </resource>
  </entry>
  <entry>
    <fullUrl value="urn:uuid:07939a0c-2854-46ff-9282-ad906bc93679" />
    <resource>
      <Organization>
        <meta>
          <lastUpdated value="2021-11-26T15:03:00.8185338+00:00" />
          <profile value="https://fhir.hl7.org.uk/StructureDefinition/UKCore-Organization" />
        </meta>
        <identifier>
          <system value="https://fhir.nhs.uk/id/ods-organization-code" />
          <value value="RND" />
        </identifier>
        <name value="Sender Organization" />
      </Organization>
    </resource>
  </entry>
</Bundle>