<Bundle xmlns="http://hl7.org/fhir">
  <id value="b8465a28-89ce-4530-8234-6fbe4aef6001" />
  <meta>
    <versionId value="1.1.0" />
    <lastUpdated value="2021-11-26T15:04:00.8185338+00:00" />
    <profile value="https://fhir.nhs.uk/StructureDefinition/BARSBundleMessage" />
  </meta>
  <type value="message" />
  <timestamp value="2021-11-26T15:00:00+00:00" />
  <entry>
    <fullUrl value="urn:uuid:1cbdfb97-5859-48a4-8301-d54eab818d68" />
    <resource>
      <MessageHeader>
        <id value="1cbdfb97-5859-48a4-8301-d54eab818d68" />
        <meta>
          <lastUpdated value="2021-11-26T15:00:00.8185338+00:00" />
          <profile value="https://fhir.nhs.uk/StructureDefinition/BARSMessageHeader-servicerequest-response" />
        </meta>
        <extension url="https://fhir.nhs.uk/StructureDefinition/CDSSExtension">
          <extension url="RequesterCDSSsoftware">
            <valueString value="Pathways" />
          </extension>
          <extension url="RequesterCDSSversion">
            <valueString value="30.2.0" />
          </extension>
        </extension>
        <eventCoding>
          <system value="https://fhir.nhs.uk/CodeSystem/message-events-bars" />
          <code value="servicerequest-response" />
        </eventCoding>
        <destination>
          <endpoint value="https://fhir.nhs.uk/Id/dos-service-id|111111111" />
          <!--    Sender to populate with the system (of the DoS used) and Service Identity value    -->
          <receiver>
            <!--    Organization    -->
            <reference value="urn:uuid:07939a0c-2854-46ff-9282-ad906bc93679" />
          </receiver>
        </destination>
        <sender>
          <!--    Organization    -->
          <reference value="urn:uuid:10397afd-479c-42ea-9d5d-e4024481e0f8" />
        </sender>
        <source>
          <name value="Emergency service" />
          <software value="Patient Manager" />
          <version value="1.7" />
          <contact>
            <system value="phone" />
            <value value="+44 (0113) 123 4567" />
          </contact>
          <endpoint value="https://fhir.nhs.uk/Id/dos-service-id|2222222222" />
          <!--    The Sender must populate the 'NHSD-Target-Identifier' header value a Receiver needs to populate in order to send a response to them via the BaRS API e.g. 'system value(URL):Service-TargetIdentifer'   -->
        </source>
        <reason>
          <coding>
            <system value="https://fhir.nhs.uk/CodeSystem/message-reason-bars" />
            <code value="new" />
          </coding>
        </reason>
        <response>
          <!-- Response to the original Validation Request -->
          <identifier value="86e3371d-1c15-4862-9552-d9560f8292ba" />
          <code value="ok" />
        </response>
        <focus>
          <!--    New Encounter    -->
          <reference value="urn:uuid:b83d13e2-8c2e-422c-88ac-63b8e86a4413" />
        </focus>
        <definition value="https://fhir.nhs.uk/MessageDefinition/bars-message-servicerequest-response-validation-interim" />
      </MessageHeader>
    </resource>
  </entry>
  <entry>
    <fullUrl value="urn:uuid:236bb75d-90ef-461f-b71e-fde7f899802c" />
    <resource>
      <ServiceRequest>
        <id value="236bb75d-90ef-461f-b71e-fde7f899802c" />
        <meta>
          <lastUpdated value="2021-11-26T15:17:00.8185338+00:00" />
          <profile value="https://fhir.nhs.uk/StructureDefinition/BARSServiceRequest-request-validation" />
        </meta>
        <status value="active" />
        <!--    used to drive workflow e.g. cancel/remove    -->
        <intent value="plan" />
        <!--     required and always set to 'plan'    -->
        <category>
          <coding>
            <system value="https://fhir.nhs.uk/CodeSystem/message-category-servicerequest" />
            <code value="validation" />
            <!--    Important for driving workflow, determining the type of referral being requested    -->
            <display value="For Validation" />
          </coding>
					<coding><!--       Use case category      -->
						<system value="https://fhir.nhs.uk/CodeSystem/usecases-categories-bars" />
						<code value="999casvalidation" />
						<display value="999-CAS Validation" />
					</coding>
        </category>
        <subject>
          <reference value="urn:uuid:9589fb37-87a2-48d8-968f-b371429208a8" />
        </subject>
        <encounter>
          <reference value="urn:uuid:8c63d621-4d86-4f57-8699-e8e22d49935d" />
        </encounter>
        <occurrencePeriod>
          <start value="2021-11-26T15:00:00+00:00" />
          <end value="2021-11-26T15:20:00+00:00" />
          <!--    'end' used a breach time for ambulance despatch    -->
        </occurrencePeriod>
      </ServiceRequest>
    </resource>
  </entry>
  <entry>
    <fullUrl value="urn:uuid:8c63d621-4d86-4f57-8699-e8e22d49935d" />
    <resource>
      <Encounter>
        <id value="8c63d621-4d86-4f57-8699-e8e22d49935d" />
        <meta>
          <lastUpdated value="2021-11-26T15:17:00.8185338+00:00" />
          <profile value="https://fhir.hl7.org.uk/StructureDefinition/UKCore-Encounter" />
        </meta>
        <identifier>
          <system value="https://sender.url/Id/case-number" />
          <!-- Set by the sender who is passing the business case number value -->
          <value value="sender1234" />
        </identifier>
        <status value="triaged" />
        <class>
          <system value="http://terminology.hl7.org/CodeSystem/v3-ActCode" />
          <code value="EMER" />
          <display value="emergency" />
        </class>
        <subject>
          <reference value="urn:uuid:9589fb37-87a2-48d8-968f-b371429208a8" />
        </subject>
        <episodeOfCare>
          <!--    Resource reference to an EpisodeOfCare Journey ID    -->
          <reference value="EpisodeOfCare/d877b820-e72b-44d1-a627-195f54bfc606" />
        </episodeOfCare>
        <period>
          <start value="2021-11-26T15:00:00+00:00" />
        </period>
      </Encounter>
    </resource>
  </entry>
  <entry>
    <fullUrl value="urn:uuid:b83d13e2-8c2e-422c-88ac-63b8e86a4413" />
    <resource>
      <Encounter xmlns="http://hl7.org/fhir">
        <!-- New Encounter for the response -->
        <id value="b83d13e2-8c2e-422c-88ac-63b8e86a4413" />
        <meta>
          <lastUpdated value="2021-11-26T15:04:00.8185338+00:00" />
          <profile value="https://fhir.hl7.org.uk/StructureDefinition/UKCore-Encounter" />
        </meta>
        <identifier>
          <system value="https://receiver.url/Id/case-number" />
          <!-- Set by the receiver who is passing the business case number value -->
          <value value="receiver1234" />
        </identifier>
        <status value="in-progress" />
        <class>
          <system value="http://terminology.hl7.org/CodeSystem/v3-ActCode" />
          <code value="EMER" />
          <display value="emergency" />
        </class>
        <subject>
          <reference value="urn:uuid:9589fb37-87a2-48d8-968f-b371429208a8" />
        </subject>
        <episodeOfCare>
          <!-- Resource reference to an EpisodeOfCare Journey ID -->
          <reference value="EpisodeOfCare/d877b820-e72b-44d1-a627-195f54bfc606" />
        </episodeOfCare>
        <period>
          <start value="2021-11-26T15:04:00+00:00" />
        </period>
        <reasonCode>
          <coding>
            <system value="https://fhir.nhs.uk/CodeSystem/message-reason-encounter" />
            <code value="validation-triage-outcome" />
            <display value="Validation of triage outcome" />
          </coding>
        </reasonCode>
      </Encounter>
    </resource>
  </entry>
  <entry>
    <fullUrl value="urn:uuid:9589fb37-87a2-48d8-968f-b371429208a8" />
    <resource>
      <Patient>
        <id value="9589fb37-87a2-48d8-968f-b371429208a8" />
        <meta>
          <lastUpdated value="2021-11-26T15:04:00.8185338+00:00" />
          <profile value="https://fhir.hl7.org.uk/StructureDefinition/UKCore-Patient" />
        </meta>
        <!--   added EthnicCategory extension   -->
        <extension url="https://fhir.hl7.org.uk/StructureDefinition/Extension-UKCore-EthnicCategory">
          <valueCodeableConcept>
            <coding>
              <system value="https://fhir.hl7.org.uk/CodeSystem/UKCore-EthnicCategory" />
              <code value="A" />
              <display value="British, Mixed British" />
            </coding>
          </valueCodeableConcept>
        </extension>
        <!--   added Religion extension   -->
        <extension url="http://hl7.org/fhir/StructureDefinition/patient-religion">
          <valueCodeableConcept>
            <coding>
              <system value="http://terminology.hl7.org/CodeSystem/v3-ReligiousAffiliation" />
              <code value="1041" />
              <display value="Roman Catholic Church" />
            </coding>
          </valueCodeableConcept>
        </extension>
        <identifier>
          <extension url="https://fhir.hl7.org.uk/StructureDefinition/Extension-UKCore-NHSNumberVerificationStatus">
            <valueCodeableConcept>
              <coding>
                <system value="https://fhir.hl7.org.uk/CodeSystem/UKCore-NHSNumberVerificationStatus" />
                <code value="number-present-and-verified" />
                <display value="Number present and verified" />
              </coding>
            </valueCodeableConcept>
          </extension>
          <system value="https://fhir.nhs.uk/Id/nhs-number" />
          <value value="3478526985" />
        </identifier>
        <name>
          <use value="official" />
          <text value="Mrs Julie Jones" />
          <family value="Jones" />
          <given value="Julie" />
          <prefix value="Mrs" />
        </name>
        <gender value="female" />
        <birthDate value="1959-05-04" />
        <address>
          <use value="home" />
          <type value="both" />
          <text value="22 Brightside Crescent, Overtown, West Yorkshire, LS10 4YU" />
          <line value="22 Brightside Crescent" />
          <city value="Overtown" />
          <district value="West Yorkshire" />
          <postalCode value="LS10 4YU" />
        </address>
        <contact>
          <extension url="https://fhir.hl7.org.uk/StructureDefinition/Extension-UKCore-ContactRank">
            <valuePositiveInt value="1" />
          </extension>
          <telecom>
            <system value="phone" />
            <value value="01138698975" />
            <use value="home" />
            <rank value="2" />
          </telecom>
          <telecom>
            <system value="phone" />
            <value value="07736312544" />
            <use value="mobile" />
            <rank value="1" />
          </telecom>
          <telecom>
            <system value="email" />
            <value value="jjones@hotmail.co.uk" />
            <use value="home" />
            <rank value="1" />
          </telecom>
        </contact>
        <contact>
          <relationship>
            <coding>
              <!--    Emergency contact person   -->
              <system value="http://terminology.hl7.org/CodeSystem/v2-0131" />
              <code value="EP" />
            </coding>
          </relationship>
          <name>
            <family value="Grayson" />
            <given value="Jack" />
          </name>
          <telecom>
            <system value="phone" />
            <value value="0789 1234567" />
            <rank value="3" />
          </telecom>
          <gender value="male" />
        </contact>
        <communication>
          <language>
            <coding>
              <system value="https://fhir.hl7.org.uk/CodeSystem/UKCore-HumanLanguage" />
              <code value="en" />
              <display value="English" />
            </coding>
          </language>
          <preferred value="true" />
        </communication>
      </Patient>
    </resource>
  </entry>
  <entry>
    <fullUrl value="urn:uuid:b5e27389-3ca5-4cbc-9173-73f0c74915d9" />
    <resource>
      <Organization>
        <id value="b5e27389-3ca5-4cbc-9173-73f0c74915d9" />
        <meta>
          <lastUpdated value="2021-11-26T15:17:00.8185338+00:00" />
          <profile value="https://fhir.hl7.org.uk/StructureDefinition/UKCore-Organization" />
        </meta>
        <name value="Practitioner Org" />
      </Organization>
    </resource>
  </entry>
  <entry>
    <fullUrl value="urn:uuid:10397afd-479c-42ea-9d5d-e4024481e0f8" />
    <resource>
      <Organization>
        <id value="10397afd-479c-42ea-9d5d-e4024481e0f8" />
        <meta>
          <lastUpdated value="2021-11-26T15:04:00.8185338+00:00" />
          <profile value="https://fhir.hl7.org.uk/StructureDefinition/UKCore-Organization" />
        </meta>
        <name value="Receiver Organization" />
      </Organization>
    </resource>
  </entry>
  <entry>
    <fullUrl value="urn:uuid:07939a0c-2854-46ff-9282-ad906bc93679" />
    <resource>
      <Organization>
        <id value="07939a0c-2854-46ff-9282-ad906bc93679" />
        <meta>
          <lastUpdated value="2021-11-26T15:04:00.8185338+00:00" />
          <profile value="https://fhir.hl7.org.uk/StructureDefinition/UKCore-Organization" />
        </meta>
        <identifier>
          <system value="https://fhir.nhs.uk/id/ods-organization-code" />
          <value value="RND" />
        </identifier>
        <name value="Sender Organization" />
      </Organization>
    </resource>
  </entry>
  <entry>
    <!--    Receiver Practitioner details    -->
    <fullUrl value="urn:uuid:7d948662-bade-450e-b6c5-9bb6ee39cb56" />
    <resource>
      <Practitioner>
        <id value="7d948662-bade-450e-b6c5-9bb6ee39cb56" />
        <meta>
          <lastUpdated value="2021-11-26T15:17:00.8185338+00:00" />
          <profile value="https://fhir.hl7.org.uk/StructureDefinition/UKCore-Practitioner" />
        </meta>
        <identifier>
          <system value="https://fhir.nhs.uk/Id/sds-role-profile-id" />
          <value value="PT2489" />
        </identifier>
        <name>
          <family value="BLAKE" />
          <given value="Marcy" />
        </name>
        <telecom>
          <system value="phone" />
          <value value="0205568263" />
          <use value="work" />
        </telecom>
      </Practitioner>
    </resource>
  </entry>
  <entry>
    <fullUrl value="urn:uuid:b923aa53-2376-4015-a07d-afe8bf2310eb" />
    <resource>
      <PractitionerRole>
        <id value="b923aa53-2376-4015-a07d-afe8bf2310eb" />
        <meta>
          <lastUpdated value="2021-11-26T15:17:00.8185338+00:00" />
          <profile value="https://fhir.hl7.org.uk/StructureDefinition/UKCore-PractitionerRole" />
        </meta>
        <practitioner>
          <reference value="urn:uuid:7d948662-bade-450e-b6c5-9bb6ee39cb56" />
        </practitioner>
        <organization>
          <reference value="urn:uuid:10397afd-479c-42ea-9d5d-e4024481e0f8" />
        </organization>
        <code>
          <!--    If populated then use SDS code    -->
          <coding>
            <system value="http://snomed.info/sct" />
            <code value="224608005" />
            <display value="Administrative healthcare staff" />
          </coding>
        </code>
        <specialty>
          <coding>
            <system value="http://snomed.info/sct" />
            <code value="408443003" />
            <display value="General medical practice" />
          </coding>
        </specialty>
      </PractitionerRole>
    </resource>
  </entry>
</Bundle>