<Bundle xmlns="http://hl7.org/fhir">
  <id value="path-R4-example-bundle-LFT-UandE-request" />
  <meta>
    <lastUpdated value="2022-03-07T09:48:00+00:00" />
    <profile value="https://fhir.hl7.org.uk/StructureDefinition/UKCore-Bundle" />
  </meta>
  <identifier>
    <system value="https://tools.ietf.org/html/rfc4122" />
    <value value="c2f8848f-a3f3-4018-861f-b369244ed101" />
  </identifier>
  <type value="message" />
  <entry>
    <fullUrl value="urn:uuid:f18a2226-c0ab-480d-b80a-b6561fe8f9c4" />
    <resource>
      <MessageHeader>
        <!-- TBC Review content of MessageHeader -->
        <id value="f18a2226-c0ab-480d-b80a-b6561fe8f9c4" />
        <meta>
          <profile value="https://fhir.hl7.org.uk/StructureDefinition/UKCore-MessageHeader" />
        </meta>
        <eventCoding>
          <system value="http://snomed.info/sct" />
          <code value="371528001" />
          <display value="Pathology report" />
        </eventCoding>
        <destination>
          <name value="TD008362 PATH LAB 001" />
          <!-- TBC Update endpoint address -->
          <endpoint value="TBC" />
          <!-- Performing Laboratory -->
          <receiver>
            <reference value="urn:uuid:8a6d85b8-9837-4fed-a257-4cf207988338" />
          </receiver>
        </destination>
        <sender>
          <!-- Requesting Organisation -->
          <reference value="urn:uuid:3c43b5b3-06d6-445f-ae9a-48d5f05df434" />
        </sender>
        <source>
          <!-- TBC Update endpoint address -->
          <endpoint value="TBC" />
        </source>
        <focus>
          <!-- ServiceRequest -->
          <reference value="urn:uuid:1c38d507-9ad7-4b49-ba91-7da204842cac" />
        </focus>
      </MessageHeader>
    </resource>
  </entry>
  <entry>
    <fullUrl value="urn:uuid:8a6d85b8-9837-4fed-a257-4cf207988338" />
    <resource>
      <Organization>
        <!-- Performing Laboratory -->
        <id value="8a6d85b8-9837-4fed-a257-4cf207988338" />
        <meta>
          <profile value="https://fhir.hl7.org.uk/StructureDefinition/UKCore-Organization" />
        </meta>
        <identifier>
          <system value="https://fhir.nhs.uk/Id/ods-organization-code" />
          <value value="Y8J7D" />
        </identifier>
        <name value="TD008362 PATH LAB 001" />
        <address>
          <line value="PATHOLOGY LAB" />
          <line value="7-8 WELLINGTON PLACE" />
          <city value="LEEDS" />
          <district value="WEST YORKSHIRE" />
          <postalCode value="LS1 4AP" />
        </address>
      </Organization>
    </resource>
  </entry>
  <entry>
    <fullUrl value="urn:uuid:3c43b5b3-06d6-445f-ae9a-48d5f05df434" />
    <resource>
      <Organization>
        <!-- Requesting Organisation -->
        <id value="3c43b5b3-06d6-445f-ae9a-48d5f05df434" />
        <meta>
          <profile value="https://fhir.hl7.org.uk/StructureDefinition/UKCore-Organization" />
        </meta>
        <identifier>
          <system value="https://fhir.nhs.uk/Id/ods-organization-code" />
          <value value="B82033" />
        </identifier>
        <name value="PICKERING MEDICAL PRACTICE" />
        <address>
          <line value="SOUTHGATE" />
          <city value="PICKERING" />
          <district value="NORTH YORKSHIRE" />
          <postalCode value="YO18 8BL" />
        </address>
      </Organization>
    </resource>
  </entry>
  <entry>
    <fullUrl value="urn:uuid:9a835acf-d715-4d84-8dcf-a8435f6417fe" />
    <resource>
      <Practitioner>
        <!-- Requesting Practitioner -->
        <id value="9a835acf-d715-4d84-8dcf-a8435f6417fe" />
        <meta>
          <profile value="https://fhir.hl7.org.uk/StructureDefinition/UKCore-Practitioner" />
        </meta>
        <identifier>
          <system value="https://fhir.nhs.uk/Id/sds-user-id" />
          <!-- Confirm SDS user id -->
          <value value="TBC" />
        </identifier>
        <name>
          <use value="official" />
          <family value="GASKELL" />
          <given value="Gale" />
          <prefix value="Dr" />
        </name>
      </Practitioner>
    </resource>
  </entry>
  <entry>
    <fullUrl value="urn:uuid:ab87a3f8-1d37-44a9-804e-5e962598a6e4" />
    <resource>
      <Patient>
        <id value="ab87a3f8-1d37-44a9-804e-5e962598a6e4" />
        <meta>
          <profile value="https://fhir.hl7.org.uk/StructureDefinition/UKCore-Patient" />
        </meta>
        <identifier>
          <extension url="https://fhir.hl7.org.uk/StructureDefinition/Extension-UKCore-NHSNumberVerificationStatus">
            <valueCodeableConcept>
              <coding>
                <system value="https://fhir.hl7.org.uk/CodeSystem/UKCore-NHSNumberVerificationStatusEngland" />
                <code value="01" />
                <display value="Number present and verified" />
              </coding>
            </valueCodeableConcept>
          </extension>
          <system value="https://fhir.nhs.uk/Id/nhs-number" />
          <value value="9727710638" />
        </identifier>
        <name>
          <use value="official" />
          <family value="WELSH" />
          <given value="Joel" />
        </name>
        <gender value="male" />
        <birthDate value="1972-08-23" />
        <address>
          <line value="ACONBURY" />
          <line value="LARPOOL DRIVE" />
          <city value="WHITBY" />
          <postalCode value="YO22 4ND" />
        </address>
      </Patient>
    </resource>
  </entry>
  <entry>
    <fullUrl value="urn:uuid:1c38d507-9ad7-4b49-ba91-7da204842cac" />
    <resource>
      <ServiceRequest>
        <id value="1c38d507-9ad7-4b49-ba91-7da204842cac" />
        <meta>
          <profile value="https://fhir.hl7.org.uk/StructureDefinition/UKCore-ServiceRequest" />
        </meta>
        <identifier>
          <system value="http://B82033-pickeringmedicalpractice.com/labrequest" />
          <value value="REQ-20220307-000046-001" />
        </identifier>
        <requisition>
          <system value="http://B82033-pickeringmedicalpractice.com/labrequest" />
          <value value="REQ-20220307-000046" />
        </requisition>
        <status value="active" />
        <intent value="order" />
        <code>
          <coding>
            <!-- UTL Requestable (procedure) -->
            <system value="http://snomed.info/sct" />
            <code value="26958001" />
            <display value="Hepatic function panel" />
          </coding>
        </code>
        <subject>
          <reference value="urn:uuid:ab87a3f8-1d37-44a9-804e-5e962598a6e4" />
          <display value="WELSH, Joel" />
        </subject>
        <authoredOn value="2022-03-07T09:48:00+00:00" />
        <requester>
          <reference value="urn:uuid:9a835acf-d715-4d84-8dcf-a8435f6417fe" />
          <display value="GASKELL, Gale" />
        </requester>
        <performer>
          <reference value="urn:uuid:8a6d85b8-9837-4fed-a257-4cf207988338" />
          <display value="TD008362 PATH LAB 001" />
        </performer>
      </ServiceRequest>
    </resource>
  </entry>
  <entry>
    <fullUrl value="urn:uuid:8660ef6a-65ef-408f-92ce-b4d6d03d783c" />
    <resource>
      <ServiceRequest>
        <id value="8660ef6a-65ef-408f-92ce-b4d6d03d783c" />
        <meta>
          <profile value="https://fhir.hl7.org.uk/StructureDefinition/UKCore-ServiceRequest" />
        </meta>
        <identifier>
          <system value="http://B82033-pickeringmedicalpractice.com/labrequest" />
          <value value="REQ-20220307-000046-002" />
        </identifier>
        <requisition>
          <system value="http://B82033-pickeringmedicalpractice.com/labrequest" />
          <value value="REQ-20220307-000046" />
        </requisition>
        <status value="active" />
        <intent value="order" />
        <code>
          <coding>
            <!-- UTL Requestable (procedure) -->
            <system value="http://snomed.info/sct" />
            <code value="252167001" />
            <display value="Urea and electrolytes" />
          </coding>
        </code>
        <subject>
          <reference value="urn:uuid:ab87a3f8-1d37-44a9-804e-5e962598a6e4" />
          <display value="WELSH, Joel" />
        </subject>
        <authoredOn value="2022-03-07T09:48:00+00:00" />
        <requester>
          <reference value="urn:uuid:9a835acf-d715-4d84-8dcf-a8435f6417fe" />
          <display value="GASKELL, Gale" />
        </requester>
        <performer>
          <reference value="urn:uuid:8a6d85b8-9837-4fed-a257-4cf207988338" />
          <display value="TD008362 PATH LAB 001" />
        </performer>
      </ServiceRequest>
    </resource>
  </entry>
</Bundle>