<Bundle xmlns="http://hl7.org/fhir">
  <id value="path-R4-example-bundle-GTT-DFT-report" />
  <meta>
    <lastUpdated value="2022-02-10T11:49:00+00:00" />
    <profile value="https://fhir.hl7.org.uk/StructureDefinition/UKCore-Bundle" />
  </meta>
  <identifier>
    <system value="https://tools.ietf.org/html/rfc4122" />
    <value value="ee9f668a-020b-480f-9e52-8f4ec29f97bf" />
  </identifier>
  <type value="message" />
  <entry>
    <fullUrl value="urn:uuid:324d9589-21eb-4852-af10-b8a656105b10" />
    <resource>
      <MessageHeader>
        <!-- TBC Review content of MessageHeader -->
        <id value="324d9589-21eb-4852-af10-b8a656105b10" />
        <meta>
          <profile value="https://fhir.hl7.org.uk/StructureDefinition/UKCore-MessageHeader" />
        </meta>
        <eventCoding>
          <system value="http://snomed.info/sct" />
          <code value="371528001" />
          <display value="Pathology report" />
        </eventCoding>
        <destination>
          <name value="PICKERING MEDICAL PRACTICE" />
          <!-- TBC Update endpoint address -->
          <endpoint value="TBC" />
          <!-- Requesting Organisation -->
          <receiver>
            <reference value="urn:uuid:3c43b5b3-06d6-445f-ae9a-48d5f05df434" />
          </receiver>
        </destination>
        <sender>
          <!-- Performing Laboratory -->
          <reference value="urn:uuid:8a6d85b8-9837-4fed-a257-4cf207988338" />
        </sender>
        <source>
          <!-- TBC Update endpoint address -->
          <endpoint value="TBC" />
        </source>
        <focus>
          <!-- DiagnosticReport -->
          <reference value="urn:uuid:35d46ca1-f253-4c97-b7ee-fb5fccdf6c20" />
        </focus>
      </MessageHeader>
    </resource>
  </entry>
  <entry>
    <fullUrl value="urn:uuid:8a6d85b8-9837-4fed-a257-4cf207988338" />
    <resource>
      <Organization>
        <!-- Performing Laboratory -->
        <id value="8a6d85b8-9837-4fed-a257-4cf207988338" />
        <meta>
          <profile value="https://fhir.hl7.org.uk/StructureDefinition/UKCore-Organization" />
        </meta>
        <identifier>
          <system value="https://fhir.nhs.uk/Id/ods-organization-code" />
          <value value="Y8J7D" />
        </identifier>
        <name value="TD008362 PATH LAB 001" />
        <address>
          <line value="PATHOLOGY LAB" />
          <line value="7-8 WELLINGTON PLACE" />
          <city value="LEEDS" />
          <district value="WEST YORKSHIRE" />
          <postalCode value="LS1 4AP" />
        </address>
      </Organization>
    </resource>
  </entry>
  <entry>
    <fullUrl value="urn:uuid:3c43b5b3-06d6-445f-ae9a-48d5f05df434" />
    <resource>
      <Organization>
        <!-- Requesting Organisation -->
        <id value="3c43b5b3-06d6-445f-ae9a-48d5f05df434" />
        <meta>
          <profile value="https://fhir.hl7.org.uk/StructureDefinition/UKCore-Organization" />
        </meta>
        <identifier>
          <system value="https://fhir.nhs.uk/Id/ods-organization-code" />
          <value value="B82033" />
        </identifier>
        <name value="PICKERING MEDICAL PRACTICE" />
        <address>
          <line value="SOUTHGATE" />
          <city value="PICKERING" />
          <district value="NORTH YORKSHIRE" />
          <postalCode value="YO18 8BL" />
        </address>
      </Organization>
    </resource>
  </entry>
  <entry>
    <fullUrl value="urn:uuid:9a835acf-d715-4d84-8dcf-a8435f6417fe" />
    <resource>
      <Practitioner>
        <!-- Requesting Practitioner -->
        <id value="9a835acf-d715-4d84-8dcf-a8435f6417fe" />
        <meta>
          <profile value="https://fhir.hl7.org.uk/StructureDefinition/UKCore-Practitioner" />
        </meta>
        <identifier>
          <system value="https://fhir.nhs.uk/Id/sds-user-id" />
          <!-- Confirm SDS user id -->
          <value value="TBC" />
        </identifier>
        <name>
          <use value="official" />
          <family value="GASKELL" />
          <given value="Gale" />
          <prefix value="Dr" />
        </name>
      </Practitioner>
    </resource>
  </entry>
  <entry>
    <fullUrl value="urn:uuid:ab87a3f8-1d37-44a9-804e-5e962598a6e4" />
    <resource>
      <Patient>
        <id value="ab87a3f8-1d37-44a9-804e-5e962598a6e4" />
        <meta>
          <profile value="https://fhir.hl7.org.uk/StructureDefinition/UKCore-Patient" />
        </meta>
        <identifier>
          <extension url="https://fhir.hl7.org.uk/StructureDefinition/Extension-UKCore-NHSNumberVerificationStatus">
            <valueCodeableConcept>
              <coding>
                <system value="https://fhir.hl7.org.uk/CodeSystem/UKCore-NHSNumberVerificationStatusEngland" />
                <code value="01" />
                <display value="Number present and verified" />
              </coding>
            </valueCodeableConcept>
          </extension>
          <system value="https://fhir.nhs.uk/Id/nhs-number" />
          <value value="9727710859" />
        </identifier>
        <name>
          <use value="official" />
          <family value="MOXEY" />
          <given value="Judy" />
        </name>
        <gender value="female" />
        <birthDate value="2004-05-06" />
        <address>
          <line value="1 CASTLEGATE" />
          <city value="PICKERING" />
          <district value="NORTH YORKSHIRE" />
          <postalCode value="YO18 7AY" />
        </address>
      </Patient>
    </resource>
  </entry>
  <entry>
    <fullUrl value="urn:uuid:1c38d507-9ad7-4b49-ba91-7da204842cac" />
    <resource>
      <ServiceRequest>
        <id value="1c38d507-9ad7-4b49-ba91-7da204842cac" />
        <meta>
          <profile value="https://fhir.hl7.org.uk/StructureDefinition/UKCore-ServiceRequest" />
        </meta>
        <identifier>
          <system value="http://B82033-pickeringmedicalpractice.com/labrequest" />
          <value value="REQ-20220207-000013" />
        </identifier>
        <status value="active" />
        <intent value="order" />
        <code>
          <coding>
            <!-- UTL Requestable (procedure) -->
            <system value="http://snomed.info/sct" />
            <code value="113076002" />
            <display value="Glucose tolerance test" />
          </coding>
        </code>
        <subject>
          <reference value="urn:uuid:ab87a3f8-1d37-44a9-804e-5e962598a6e4" />
          <display value="MOXEY, Judy" />
        </subject>
        <authoredOn value="2022-02-07T09:20:00+00:00" />
        <requester>
          <reference value="urn:uuid:9a835acf-d715-4d84-8dcf-a8435f6417fe" />
          <display value="GASKELL, Gale" />
        </requester>
        <performer>
          <reference value="urn:uuid:8a6d85b8-9837-4fed-a257-4cf207988338" />
          <display value="TD008362 PATH LAB 001" />
        </performer>
      </ServiceRequest>
    </resource>
  </entry>
  <entry>
    <fullUrl value="urn:uuid:35d46ca1-f253-4c97-b7ee-fb5fccdf6c20" />
    <resource>
      <DiagnosticReport>
        <id value="35d46ca1-f253-4c97-b7ee-fb5fccdf6c20" />
        <meta>
          <profile value="https://fhir.hl7.org.uk/StructureDefinition/UKCore-DiagnosticReport" />
        </meta>
        <identifier>
          <system value="http://Y8J7D-pathlab001.com/report" />
          <value value="REP-20220210-000218" />
        </identifier>
        <basedOn>
          <reference value="urn:uuid:1c38d507-9ad7-4b49-ba91-7da204842cac" />
          <type value="http://hl7.org/fhir/StructureDefinition/ServiceRequest" />
        </basedOn>
        <status value="final" />
        <code>
          <coding>
            <system value="http://snomed.info/sct" />
            <code value="721981007" />
            <display value="Diagnostic studies report" />
          </coding>
        </code>
        <subject>
          <reference value="urn:uuid:ab87a3f8-1d37-44a9-804e-5e962598a6e4" />
          <display value="MOXEY, Judy" />
        </subject>
        <issued value="2022-02-10T11:49:00+00:00" />
        <performer>
          <reference value="urn:uuid:8a6d85b8-9837-4fed-a257-4cf207988338" />
          <display value="TD008362 PATH LAB 001" />
        </performer>
        <specimen>
          <reference value="urn:uuid:bcee569d-c37d-4901-90b4-c9f27c4dafab" />
        </specimen>
        <specimen>
          <reference value="urn:uuid:45f1e625-9af2-4920-9ac4-63b4d9d30bd0" />
        </specimen>
        <specimen>
          <reference value="urn:uuid:ad717ae8-cb35-4d66-ba51-e22a76b1d158" />
        </specimen>
        <result>
          <reference value="urn:uuid:2a48660b-8d45-4735-acaa-3d9918b6b902" />
        </result>
        <conclusion value="Fasting glucose below 5.1, 1hr below 10.0 and 2hr below 8.5 mmol/L. Normal response to glucose load, no further action required." />
      </DiagnosticReport>
    </resource>
  </entry>
  <entry>
    <fullUrl value="urn:uuid:bcee569d-c37d-4901-90b4-c9f27c4dafab" />
    <resource>
      <Specimen>
        <id value="bcee569d-c37d-4901-90b4-c9f27c4dafab" />
        <meta>
          <profile value="https://fhir.hl7.org.uk/StructureDefinition/UKCore-Specimen" />
        </meta>
        <accessionIdentifier>
          <system value="http://Y8J7D-pathlab001.com/specimen" />
          <value value="SPC-LAB-20220209-001531" />
        </accessionIdentifier>
        <status value="available" />
        <type>
          <coding>
            <system value="http://snomed.info/sct" />
            <code value="119364003" />
            <display value="Serum specimen" />
          </coding>
        </type>
        <subject>
          <reference value="urn:uuid:ab87a3f8-1d37-44a9-804e-5e962598a6e4" />
          <display value="MOXEY, Judy" />
        </subject>
        <receivedTime value="2022-02-09T14:17:06+00:00" />
        <request>
          <reference value="urn:uuid:1c38d507-9ad7-4b49-ba91-7da204842cac" />
        </request>
        <collection>
          <collectedDateTime value="2022-02-09T10:01:23+00:00" />
          <fastingStatusCodeableConcept>
            <coding>
              <system value="http://terminology.hl7.org/CodeSystem/v2-0916" />
              <code value="F" />
              <display value="Patient was fasting prior to the procedure." />
            </coding>
          </fastingStatusCodeableConcept>
        </collection>
      </Specimen>
    </resource>
  </entry>
  <entry>
    <fullUrl value="urn:uuid:45f1e625-9af2-4920-9ac4-63b4d9d30bd0" />
    <resource>
      <Specimen>
        <id value="45f1e625-9af2-4920-9ac4-63b4d9d30bd0" />
        <meta>
          <profile value="https://fhir.hl7.org.uk/StructureDefinition/UKCore-Specimen" />
        </meta>
        <accessionIdentifier>
          <system value="http://Y8J7D-pathlab001.com/specimen" />
          <value value="SPC-LAB-20220209-001549" />
        </accessionIdentifier>
        <status value="available" />
        <type>
          <coding>
            <system value="http://snomed.info/sct" />
            <code value="119364003" />
            <display value="Serum specimen" />
          </coding>
        </type>
        <subject>
          <reference value="urn:uuid:ab87a3f8-1d37-44a9-804e-5e962598a6e4" />
          <display value="MOXEY, Judy" />
        </subject>
        <receivedTime value="2022-02-09T14:17:06+00:00" />
        <request>
          <reference value="urn:uuid:1c38d507-9ad7-4b49-ba91-7da204842cac" />
        </request>
        <collection>
          <collectedDateTime value="2022-02-09T11:03:07+00:00" />
        </collection>
      </Specimen>
    </resource>
  </entry>
  <entry>
    <fullUrl value="urn:uuid:ad717ae8-cb35-4d66-ba51-e22a76b1d158" />
    <resource>
      <Specimen>
        <id value="ad717ae8-cb35-4d66-ba51-e22a76b1d158" />
        <meta>
          <profile value="https://fhir.hl7.org.uk/StructureDefinition/UKCore-Specimen" />
        </meta>
        <accessionIdentifier>
          <system value="http://Y8J7D-pathlab001.com/specimen" />
          <value value="SPC-LAB-20220209-001587" />
        </accessionIdentifier>
        <status value="available" />
        <type>
          <coding>
            <system value="http://snomed.info/sct" />
            <code value="119364003" />
            <display value="Serum specimen" />
          </coding>
        </type>
        <subject>
          <reference value="urn:uuid:ab87a3f8-1d37-44a9-804e-5e962598a6e4" />
          <display value="MOXEY, Judy" />
        </subject>
        <receivedTime value="2022-02-09T14:17:06+00:00" />
        <request>
          <reference value="urn:uuid:1c38d507-9ad7-4b49-ba91-7da204842cac" />
        </request>
        <collection>
          <collectedDateTime value="2022-02-09T12:02:17+00:00" />
        </collection>
      </Specimen>
    </resource>
  </entry>
  <entry>
    <fullUrl value="urn:uuid:2a48660b-8d45-4735-acaa-3d9918b6b902" />
    <resource>
      <Observation>
        <!-- Test group Observation for Glucose Tolerance Test -->
        <id value="2a48660b-8d45-4735-acaa-3d9918b6b902" />
        <meta>
          <profile value="https://fhir.hl7.org.uk/StructureDefinition/UKCore-Observation" />
        </meta>
        <identifier>
          <system value="https://tools.ietf.org/html/rfc4122" />
          <value value="df8fcad2-12f5-4f04-8b73-91dadc3120b9" />
        </identifier>
        <status value="final" />
        <code>
          <coding>
            <!-- UTL Requestable (procedure) -->
            <system value="http://snomed.info/sct" />
            <code value="113076002" />
            <display value="Glucose tolerance test" />
          </coding>
        </code>
        <subject>
          <reference value="urn:uuid:ab87a3f8-1d37-44a9-804e-5e962598a6e4" />
          <display value="MOXEY, Judy" />
        </subject>
        <issued value="2022-02-10T11:49:00+00:00" />
        <performer>
          <reference value="urn:uuid:8a6d85b8-9837-4fed-a257-4cf207988338" />
          <display value="TD008362 PATH LAB 001" />
        </performer>
        <hasMember>
          <!-- Glucose substance concentration at 0 minutes -->
          <reference value="urn:uuid:6b64af83-2ea2-4b0f-a6a7-17e5a7b27a31" />
        </hasMember>
        <hasMember>
          <!-- Glucose substance concentration at 60 minutes -->
          <reference value="urn:uuid:1dbcb7a9-4506-40f9-9908-fa0d32deeaa4" />
        </hasMember>
        <hasMember>
          <!-- Glucose substance concentration at 120 minutes -->
          <reference value="urn:uuid:1346248c-8c09-4312-a0b9-898de1cc16f5" />
        </hasMember>
      </Observation>
    </resource>
  </entry>
  <entry>
    <fullUrl value="urn:uuid:6b64af83-2ea2-4b0f-a6a7-17e5a7b27a31" />
    <resource>
      <Observation>
        <!-- Glucose substance concentration at 0 minutes -->
        <id value="6b64af83-2ea2-4b0f-a6a7-17e5a7b27a31" />
        <meta>
          <profile value="https://fhir.hl7.org.uk/StructureDefinition/UKCore-Observation" />
        </meta>
        <identifier>
          <system value="https://tools.ietf.org/html/rfc4122" />
          <value value="ba7fa6e0-2170-4905-ac9f-e53970b17aed" />
        </identifier>
        <status value="final" />
        <code>
          <coding>
            <!-- UTL Reportable (observable entity) -->
            <system value="http://snomed.info/sct" />
            <code value="1107451000000100" />
            <display value="Glucose substance concentration in serum" />
          </coding>
        </code>
        <subject>
          <reference value="urn:uuid:ab87a3f8-1d37-44a9-804e-5e962598a6e4" />
          <display value="MOXEY, Judy" />
        </subject>
        <effectiveDateTime value="2022-02-09T10:01:23+00:00" />
        <issued value="2022-02-10T11:49:00+00:00" />
        <performer>
          <reference value="urn:uuid:8a6d85b8-9837-4fed-a257-4cf207988338" />
          <display value="TD008362 PATH LAB 001" />
        </performer>
        <valueQuantity>
          <value value="4.8" />
          <unit value="mmol/L" />
          <system value="http://unitsofmeasure.org" />
          <code value="mmol/L" />
        </valueQuantity>
        <component>
          <code>
            <coding>
              <system value="http://snomed.info/sct" />
              <code value="118578006" />
              <display value="Relative time" />
            </coding>
          </code>
          <valueQuantity>
            <value value="0" />
            <unit value="min" />
            <system value="http://unitsofmeasure.org" />
            <code value="min" />
          </valueQuantity>
        </component>
        <specimen>
          <reference value="urn:uuid:bcee569d-c37d-4901-90b4-c9f27c4dafab" />
        </specimen>
      </Observation>
    </resource>
  </entry>
  <entry>
    <fullUrl value="urn:uuid:1dbcb7a9-4506-40f9-9908-fa0d32deeaa4" />
    <resource>
      <Observation>
        <!-- Glucose substance concentration at 60 minutes -->
        <id value="1dbcb7a9-4506-40f9-9908-fa0d32deeaa4" />
        <meta>
          <profile value="https://fhir.hl7.org.uk/StructureDefinition/UKCore-Observation" />
        </meta>
        <identifier>
          <system value="https://tools.ietf.org/html/rfc4122" />
          <value value="9e1f413b-8242-4e37-b23c-233be79e75a6" />
        </identifier>
        <status value="final" />
        <code>
          <coding>
            <!-- UTL Reportable (observable entity) -->
            <system value="http://snomed.info/sct" />
            <code value="1107451000000100" />
            <display value="Glucose substance concentration in serum" />
          </coding>
        </code>
        <subject>
          <reference value="urn:uuid:ab87a3f8-1d37-44a9-804e-5e962598a6e4" />
          <display value="MOXEY, Judy" />
        </subject>
        <effectiveDateTime value="2022-02-09T11:03:07+00:00" />
        <issued value="2022-02-10T11:49:00+00:00" />
        <performer>
          <reference value="urn:uuid:8a6d85b8-9837-4fed-a257-4cf207988338" />
          <display value="TD008362 PATH LAB 001" />
        </performer>
        <valueQuantity>
          <value value="8.8" />
          <unit value="mmol/L" />
          <system value="http://unitsofmeasure.org" />
          <code value="mmol/L" />
        </valueQuantity>
        <component>
          <code>
            <coding>
              <system value="http://snomed.info/sct" />
              <code value="118578006" />
              <display value="Relative time" />
            </coding>
          </code>
          <valueQuantity>
            <value value="60" />
            <unit value="min" />
            <system value="http://unitsofmeasure.org" />
            <code value="min" />
          </valueQuantity>
        </component>
        <specimen>
          <reference value="urn:uuid:45f1e625-9af2-4920-9ac4-63b4d9d30bd0" />
        </specimen>
      </Observation>
    </resource>
  </entry>
  <entry>
    <fullUrl value="urn:uuid:1346248c-8c09-4312-a0b9-898de1cc16f5" />
    <resource>
      <Observation>
        <!-- Glucose substance concentration at 120 minutes -->
        <id value="1346248c-8c09-4312-a0b9-898de1cc16f5" />
        <meta>
          <profile value="https://fhir.hl7.org.uk/StructureDefinition/UKCore-Observation" />
        </meta>
        <identifier>
          <system value="https://tools.ietf.org/html/rfc4122" />
          <value value="4c66b23a-5c91-49fb-85b1-5073a88afc25" />
        </identifier>
        <status value="final" />
        <code>
          <coding>
            <!-- UTL Reportable (observable entity) -->
            <system value="http://snomed.info/sct" />
            <code value="1107451000000100" />
            <display value="Glucose substance concentration in serum" />
          </coding>
        </code>
        <subject>
          <reference value="urn:uuid:ab87a3f8-1d37-44a9-804e-5e962598a6e4" />
          <display value="MOXEY, Judy" />
        </subject>
        <effectiveDateTime value="2022-02-09T12:02:17+00:00" />
        <issued value="2022-02-10T11:49:00+00:00" />
        <performer>
          <reference value="urn:uuid:8a6d85b8-9837-4fed-a257-4cf207988338" />
          <display value="TD008362 PATH LAB 001" />
        </performer>
        <valueQuantity>
          <value value="6.4" />
          <unit value="mmol/L" />
          <system value="http://unitsofmeasure.org" />
          <code value="mmol/L" />
        </valueQuantity>
        <component>
          <code>
            <coding>
              <system value="http://snomed.info/sct" />
              <code value="118578006" />
              <display value="Relative time" />
            </coding>
          </code>
          <valueQuantity>
            <value value="120" />
            <unit value="min" />
            <system value="http://unitsofmeasure.org" />
            <code value="min" />
          </valueQuantity>
        </component>
        <specimen>
          <reference value="urn:uuid:ad717ae8-cb35-4d66-ba51-e22a76b1d158" />
        </specimen>
      </Observation>
    </resource>
  </entry>
</Bundle>