<Bundle xmlns="http://hl7.org/fhir">
  <id value="Bundle-Pathology-Example" />
  <meta>
    <lastUpdated value="2020-09-20T10:22:00+00:00" />
    <profile value="https://fhir.hl7.org.uk/StructureDefinition/UKCore-Bundle" />
  </meta>
  <identifier>
    <system value="https://tools.ietf.org/html/rfc4122" />
    <value value="f36927ef-7703-45ed-b0e5-6ec6723cf0f6" />
  </identifier>
  <type value="message" />
  <entry>
    <fullUrl value="urn:uuid:a4409d7c-b613-477c-b623-87e60406c2f0" />
    <resource>
      <MessageHeader>
        <id value="a4409d7c-b613-477c-b623-87e60406c2f0" />
        <meta>
          <profile value="https://fhir.hl7.org.uk/StructureDefinition/UKCore-MessageHeader" />
        </meta>
        <eventCoding>
          <system value="http://snomed.info/sct" />
          <code value="371528001" />
          <display value="Pathology report" />
        </eventCoding>
        <destination>
          <name value="THE BRIDGE STREET SURGERY" />
          <endpoint value="llp:10.11.12.14:5555" />
          <receiver>
            <reference value="urn:uuid:bf7a76d3-5b44-4194-a9e0-d1cc1ea5e50e" />
          </receiver>
        </destination>
        <sender>
          <reference value="urn:uuid:d6407de7-0e86-45eb-93cb-035094aaa49e" />
        </sender>
        <source>
          <endpoint value="NOROT003" />
        </source>
        <focus>
          <reference value="urn:uuid:efae5859-28df-4e7d-be91-6df56d8215e4" />
        </focus>
      </MessageHeader>
    </resource>
  </entry>
  <entry>
    <fullUrl value="urn:uuid:d6407de7-0e86-45eb-93cb-035094aaa49e" />
    <resource>
      <Organization>
        <id value="d6407de7-0e86-45eb-93cb-035094aaa49e" />
        <meta>
          <profile value="https://fhir.hl7.org.uk/StructureDefinition/UKCore-Organization" />
        </meta>
        <identifier>
          <system value="https://fhir.nhs.uk/Id/ods-organization-code" />
          <value value="RGD12" />
        </identifier>
        <name value="Lingfield Royal Infirmary (Blood Sciences)" />
        <address>
          <line value="Lingfield NHS Foundation Trust" />
          <line value="Blood Sciences" />
          <line value="BECKETT STREET" />
          <city value="LINGFIELD" />
          <district value="WEST YORKSHIRE" />
          <postalCode value="LI9 7TF" />
        </address>
      </Organization>
    </resource>
  </entry>
  <entry>
    <fullUrl value="urn:uuid:e78b5421-8d55-4f61-8cbf-bee1c69513f1" />
    <resource>
      <Organization>
        <id value="e78b5421-8d55-4f61-8cbf-bee1c69513f1" />
        <meta>
          <profile value="https://fhir.hl7.org.uk/StructureDefinition/UKCore-Organization" />
        </meta>
        <identifier>
          <system value="https://fhir.nhs.uk/Id/ods-organization-code" />
          <value value="RGD12" />
        </identifier>
        <name value="Lingfield Royal Infirmary (Oncology)" />
        <address>
          <line value="Lingfield NHS Foundation Trust" />
          <line value="Oncology Department" />
          <line value="BECKETT STREET" />
          <city value="LINGFIELD" />
          <district value="WEST YORKSHIRE" />
          <postalCode value="LI9 7TF" />
        </address>
      </Organization>
    </resource>
  </entry>
  <entry>
    <fullUrl value="urn:uuid:bf7a76d3-5b44-4194-a9e0-d1cc1ea5e50e" />
    <resource>
      <Organization>
        <id value="bf7a76d3-5b44-4194-a9e0-d1cc1ea5e50e" />
        <meta>
          <profile value="https://fhir.hl7.org.uk/StructureDefinition/UKCore-Organization" />
        </meta>
        <identifier>
          <system value="https://fhir.nhs.uk/Id/ods-organization-code" />
          <value value="D82015" />
        </identifier>
        <name value="THE BRIDGE STREET SURGERY" />
        <address>
          <line value="30/32 BRIDGE STREET" />
          <city value="DOWNHAM MARKET" />
          <district value="NORFOLK" />
          <postalCode value="PE38 9DH" />
        </address>
      </Organization>
    </resource>
  </entry>
  <!--Requesting Practitioner,The consultant, Dr Ibrahim Khan-->
  <entry>
    <fullUrl value="urn:uuid:f25e9d63-6a4e-4de6-b9dc-c912fda62b01" />
    <resource>
      <Practitioner>
        <id value="f25e9d63-6a4e-4de6-b9dc-c912fda62b01" />
        <meta>
          <profile value="https://fhir.hl7.org.uk/StructureDefinition/UKCore-Practitioner" />
        </meta>
        <identifier>
          <system value="https://fhir.nhs.uk/Id/sds-user-id" />
          <value value="3415870223" />
        </identifier>
        <name>
          <use value="official" />
          <family value="Khan" />
          <given value="Ibrahim" />
          <prefix value="Dr" />
          <suffix value="MB ChB" />
          <suffix value="RCP" />
        </name>
      </Practitioner>
    </resource>
  </entry>
  <entry>
    <fullUrl value="urn:uuid:8d6c2cd5-0eec-496a-88d0-3785a135df09" />
    <resource>
      <Patient>
        <id value="8d6c2cd5-0eec-496a-88d0-3785a135df09" />
        <meta>
          <profile value="https://fhir.hl7.org.uk/StructureDefinition/UKCore-Patient" />
        </meta>
        <identifier>
          <extension url="https://fhir.hl7.org.uk/StructureDefinition/Extension-UKCore-NHSNumberVerificationStatus">
            <valueCodeableConcept>
              <coding>
                <system value="https://fhir.hl7.org.uk/CodeSystem/UKCore-NHSNumberVerificationStatusEngland" />
                <code value="01" />
                <display value="Number present and verified" />
              </coding>
            </valueCodeableConcept>
          </extension>
          <system value="https://fhir.nhs.uk/Id/nhs-number" />
          <value value="9432003812" />
        </identifier>
        <name>
          <use value="official" />
          <family value="Davies" />
          <given value="Michael" />
        </name>
        <gender value="male" />
        <birthDate value="1961-12-29" />
      </Patient>
    </resource>
  </entry>
  <entry>
    <fullUrl value="urn:uuid:d9df1431-22ac-462a-946a-f195f6c639af" />
    <resource>
      <ServiceRequest>
        <id value="d9df1431-22ac-462a-946a-f195f6c639af" />
        <meta>
          <profile value="https://fhir.hl7.org.uk/StructureDefinition/UKCore-ServiceRequest" />
        </meta>
        <!--A business level identifier for the original test request.Set by the requesting organisation-->
        <identifier>
          <system value="https://tools.ietf.org/html/rfc4122" />
          <value value="7e9bbd01-4e52-420d-b05b-48bc671d6708" />
        </identifier>
        <status value="active" />
        <intent value="order" />
        <code>
          <coding>
            <system value="http://snomed.info/sct" />
            <code value="63476009" />
            <display value="Prostate specific antigen measurement" />
          </coding>
        </code>
        <subject>
          <reference value="urn:uuid:8d6c2cd5-0eec-496a-88d0-3785a135df09" />
          <display value="DAVIES, Michael" />
        </subject>
        <requester>
          <reference value="urn:uuid:f25e9d63-6a4e-4de6-b9dc-c912fda62b01" />
          <display value="KHAN" />
        </requester>
        <performer>
          <reference value="urn:uuid:e78b5421-8d55-4f61-8cbf-bee1c69513f1" />
          <display value="Lingfield Royal Infirmary (Oncology)" />
        </performer>
      </ServiceRequest>
    </resource>
  </entry>
  <entry>
    <fullUrl value="urn:uuid:efae5859-28df-4e7d-be91-6df56d8215e4" />
    <resource>
      <DiagnosticReport>
        <id value="efae5859-28df-4e7d-be91-6df56d8215e4" />
        <meta>
          <profile value="https://fhir.hl7.org.uk/StructureDefinition/UKCore-DiagnosticReport" />
        </meta>
        <identifier>
          <system value="http://acme.com/LingfieldRIL/reports" />
          <value value="5234344" />
        </identifier>
        <basedOn>
          <reference value="urn:uuid:d9df1431-22ac-462a-946a-f195f6c639af" />
        </basedOn>
        <status value="final" />
        <code>
          <coding>
            <system value="http://snomed.info/sct" />
            <code value="721981007" />
            <display value="Diagnostic studies report" />
          </coding>
        </code>
        <subject>
          <reference value="urn:uuid:8d6c2cd5-0eec-496a-88d0-3785a135df09" />
          <display value="DAVIES, Michael" />
        </subject>
        <issued value="2019-01-30T12:00:00+00:00" />
        <performer>
          <reference value="urn:uuid:d6407de7-0e86-45eb-93cb-035094aaa49e" />
          <display value="Lingfield Royal Infirmary (Blood Sciences)" />
        </performer>
        <specimen>
          <reference value="urn:uuid:756a8361-79ce-4561-afcb-a91fe19df123" />
        </specimen>
        <result>
          <reference value="urn:uuid:dacb177a-9501-4dcc-8b22-b941791ae0db" />
        </result>
      </DiagnosticReport>
    </resource>
  </entry>
  <entry>
    <fullUrl value="urn:uuid:756a8361-79ce-4561-afcb-a91fe19df123" />
    <resource>
      <Specimen>
        <id value="756a8361-79ce-4561-afcb-a91fe19df123" />
        <meta>
          <profile value="https://fhir.hl7.org.uk/StructureDefinition/UKCore-Specimen" />
        </meta>
        <identifier>
          <system value="https://tools.ietf.org/html/rfc4122" />
          <value value="1b663fc5-9dec-49c0-9eed-18a7cfa5a6b2" />
        </identifier>
        <accessionIdentifier>
          <system value="http://lab.acme.org/specimens/2020/LingfieldRIL" />
          <value value="X352366" />
        </accessionIdentifier>
        <status value="available" />
        <type>
          <coding>
            <system value="http://snomed.info/sct" />
            <code value="119361006" />
            <display value="Plasma specimen" />
          </coding>
        </type>
        <subject>
          <reference value="urn:uuid:8d6c2cd5-0eec-496a-88d0-3785a135df09" />
          <display value="DAVIES, Michael" />
        </subject>
        <receivedTime value="2019-01-29T15:00:00+00:00" />
        <collection>
          <collectedDateTime value="2019-01-29T11:00:00+00:00" />
        </collection>
      </Specimen>
    </resource>
  </entry>
  <!--Observed test results-->
  <entry>
    <fullUrl value="urn:uuid:dacb177a-9501-4dcc-8b22-b941791ae0db" />
    <resource>
      <Observation>
        <id value="dacb177a-9501-4dcc-8b22-b941791ae0db" />
        <meta>
          <profile value="https://fhir.hl7.org.uk/StructureDefinition/UKCore-Observation" />
        </meta>
        <identifier>
          <system value="https://tools.ietf.org/html/rfc4122" />
          <value value="2af46949-4938-4c57-bad4-c4363e1965d5" />
        </identifier>
        <status value="final" />
        <!--Prostate specific antigen mass concentration in plasma-->
        <code>
          <coding>
            <system value="http://snomed.info/sct" />
            <code value="1107801000000104" />
            <display value="Prostate specific antigen mass concentration in plasma" />
          </coding>
        </code>
        <subject>
          <reference value="urn:uuid:8d6c2cd5-0eec-496a-88d0-3785a135df09" />
          <display value="DAVIES, Michael" />
        </subject>
        <effectiveDateTime value="2019-01-29T16:00:00+00:00" />
        <performer>
          <reference value="urn:uuid:d6407de7-0e86-45eb-93cb-035094aaa49e" />
          <display value="Lingfield Royal Infirmary (Blood Sciences)" />
        </performer>
        <valueQuantity>
          <value value="5.9" />
          <unit value="ug/L" />
          <system value="https://unitsofmeasure.org" />
          <code value="ug/L" />
        </valueQuantity>
        <specimen>
          <reference value="urn:uuid:756a8361-79ce-4561-afcb-a91fe19df123" />
        </specimen>
        <referenceRange>
          <low>
            <value value="0" />
          </low>
          <high>
            <value value="4" />
          </high>
        </referenceRange>
      </Observation>
    </resource>
  </entry>
</Bundle>