{
  "resourceType": "Bundle",
  "id": "Bundle-NonWGSTestOrderForm-Reanalysis-Example",
  "type": "transaction",
  "entry": [
    {
      "fullUrl": "http://example.org/fhir/PractitionerRole/PractitionerRole-HazelSmithRenal-Example",
      "resource": {
        "resourceType": "PractitionerRole",
        "id": "PractitionerRole-HazelSmithRenal-Example",
        "practitioner": {
          "identifier": {
            "system": "https://fhir.nhs.uk/Id/sds-user-id",
            "value": "9999999998"
          },
          "display": "Dr. Hazel Smith"
        },
        "organization": {
          "identifier": {
            "system": "https://fhir.nhs.uk/Id/ods-organization-code",
            "value": "RAX01"
          },
          "display": "Kingston Hospital NHS Foundation Trust"
        },
        "specialty": [
          {
            "coding": [
              {
                "system": "https://fhir.hl7.org.uk/CodeSystem/UKCore-PracticeSettingCode",
                "code": "361",
                "display": "Renal Medicine"
              }
            ]
          }
        ],
        "telecom": [
          {
            "system": "phone",
            "value": "02085467711"
          },
          {
            "system": "email",
            "value": "Hazel.smith12@nhs.net"
          },
          {
            "system": "email",
            "value": "renalseckingston@nhs.net",
            "extension": [
              {
                "url": "http://hl7.org/fhir/StructureDefinition/contactpoint-comment",
                "valueString": "reporting"
              }
            ]
          },
          {
            "system": "email",
            "value": "neuroseckingston@nhs.net",
            "extension": [
              {
                "url": "http://hl7.org/fhir/StructureDefinition/contactpoint-comment",
                "valueString": "reporting"
              }
            ]
          }
        ]
      },
      "request": {
        "method": "POST",
        "url": "PractitionerRole"
      }
    },
    {
      "fullUrl": "http://example.org/fhir/Patient/Patient-DemeizaSeo-Example",
      "resource": {
        "resourceType": "Patient",
        "id": "Patient-DemeizaSeo-Example",
        "extension": [
          {
            "url": "https://fhir.hl7.org.uk/StructureDefinition/Extension-UKCore-BirthSex",
            "valueCodeableConcept": {
              "coding": [
                {
                  "system": "http://terminology.hl7.org/CodeSystem/v3-AdministrativeGender",
                  "code": "F",
                  "display": "Female"
                }
              ]
            }
          },
          {
            "url": "https://fhir.hl7.org.uk/StructureDefinition/Extension-UKCore-EthnicCategory",
            "valueCodeableConcept": {
              "coding": [
                {
                  "system": "https://fhir.hl7.org.uk/CodeSystem/UKCore-EthnicCategoryEngland",
                  "code": "R",
                  "display": "Other Ethnic Groups - Chinese"
                }
              ]
            }
          }
        ],
        "identifier": [
          {
            "system": "https://fhir.nhs.uk/Id/nhs-number",
            "value": "9449306559",
            "extension": [
              {
                "url": "https://fhir.hl7.org.uk/StructureDefinition/Extension-UKCore-NHSNumberVerificationStatus",
                "valueCodeableConcept": {
                  "coding": [
                    {
                      "system": "https://fhir.hl7.org.uk/CodeSystem/UKCore-NHSNumberVerificationStatusEngland",
                      "version": "2.2.0",
                      "code": "01",
                      "display": "Number present and verified"
                    }
                  ]
                }
              }
            ]
          },
          {
            "system": "urn:oid:2.16.840.1.113883.2.1.3.2.4.18.24",
            "value": "RWT16378",
            "assigner": {
              "identifier": {
                "system": "https://fhir.nhs.uk/Id/ods-organization-code",
                "value": "RAX"
              }
            }
          }
        ],
        "name": [
          {
            "given": [
              "Demeiza"
            ],
            "family": "Seo"
          }
        ],
        "gender": "female",
        "birthDate": "2011-01-26",
        "deceasedBoolean": false,
        "address": [
          {
            "line": [
              "1 Aragon Avenue,",
              "Thames Ditton"
            ],
            "city": "Surrey",
            "postalCode": "KT7 0PY"
          }
        ],
        "generalPractitioner": [
          {
            "identifier": {
              "system": "https://fhir.hl7.org.uk/Id/gmp-number",
              "value": "G9999999"
            },
            "display": "Dr. Aero Smith"
          },
          {
            "identifier": {
              "system": "https://fhir.hl7.org.uk/Id/ODS-code",
              "value": "TP123"
            },
            "display": "123 Test Practice"
          }
        ],
        "link": [
          {
            "other": {
              "reference": "https://api.service.nhs.uk/personal-demographics/FHIR/R4/Patient/9449307559"
            },
            "type": "seealso"
          }
        ]
      },
      "request": {
        "method": "POST",
        "url": "Patient",
        "ifNoneExist": "Patient?identifier=https://fhir.nhs.uk/Id/nhs-number|9449307559"
      }
    },
    {
      "fullUrl": "http://example.org/fhir/Observation/Observation-GenomicEthnicity-Example",
      "resource": {
        "resourceType": "Observation",
        "id": "Observation-GenomicEthnicity-Example",
        "status": "preliminary",
        "code": {
          "coding": [
            {
              "system": "http://snomed.info/sct",
              "code": "723621000000103",
              "display": "Ethnicity"
            }
          ]
        },
        "subject": {
          "reference": "Patient/Patient-DemeizaSeo-Example",
          "identifier": {
            "system": "https://fhir.nhs.uk/Id/nhs-number",
            "value": "9449307559"
          }
        },
        "valueString": "unknown"
      },
      "request": {
        "method": "POST",
        "url": "Observation"
      }
    },
    {
      "fullUrl": "http://example.org/fhir/ServiceRequest/ServiceRequest-NonWGSTestOrderForm-ReAnalysis-Example",
      "resource": {
        "resourceType": "ServiceRequest",
        "id": "ServiceRequest-NonWGSTestOrderForm-ReAnalysis-Example",
        "basedOn": [
          {
            "reference": "ServiceRequest/ServiceRequest-NonWGSTestOrderForm-SyndromicEpilepsy-Example"
          }
        ],
        "extension": [
          {
            "url": "https://fhir.hl7.org.uk/StructureDefinition/Extension-UKCore-Coverage",
            "valueCodeableConcept": {
              "coding": [
                {
                  "system": "https://fhir.hl7.org.uk/CodeSystem/UKCore-FundingCategory",
                  "code": "nhs",
                  "display": "NHS"
                }
              ]
            }
          }
        ],
        "status": "active",
        "intent": "order",
        "category": [
          {
            "coding": [
              {
                "system": "https://fhir.hl7.org.uk/CodeSystem/UKCore-GenomeSequencingCategory",
                "code": "rare-disease-non-wgs"
              }
            ]
          }
        ],
        "priority": "routine",
        "code": {
          "coding": [
            {
              "system": "https://fhir.nhs.uk/CodeSystem/England-GenomicTestDirectory",
              "code": "R387",
              "display": "Re-analysis"
            }
          ]
        },
        "orderDetail": [
          {
            "coding": [
              {
                "system": "https://fhir.nhs.uk/CodeSystem/England-GenomicTestDirectory",
                "code": "R59",
                "display": "Early onset or syndromic epilepsy"
              }
            ]
          }
        ],
        "subject": {
          "reference": "Patient/Patient-DemeizaSeo-Example",
          "identifier": {
            "system": "https://fhir.nhs.uk/Id/nhs-number",
            "value": "9449306559"
          }
        },
        "authoredOn": "2023-09-06T09:00:00Z",
        "requester": {
          "reference": "PractitionerRole/PractitionerRole-HazelSmithRenal-Example"
        },
        "reasonCode": [
          {
            "coding": [
              {
                "system": "https://fhir.nhs.uk/CodeSystem/England-GenomicTestDirectory",
                "code": "719641000000101",
                "display": "Data analysis (qualifier value)"
              }
            ],
            "text": "Significant new treatment and or clinical management implication for the patient.Please provide details/treatment for management of epilepsy"
          }
        ],
        "supportingInfo": [
          {
            "reference": "Observation/Observation-GenomicEthnicity-Example"
          },
          {
            "reference": "Observation/Observation-DiseaseStatus-Example"
          },
          {
            "reference": "Observation/Observation-NoPregnancy-Example"
          },
          {
            "reference": "Observation/Observation-NonConsanguinousUnion-Example"
          },
          {
            "reference": "FamilyMemberHistory/FamilyMemberHistory-NonConsanguinousUnion-Example"
          },
          {
            "reference": "Observation/Observation-NoBoneMarrowTransplant-Example"
          },
          {
            "reference": "Observation/Observation-NoTransfusion-Example"
          }
        ],
        "specimen": [
          {
            "display": "No Sample Required"
          }
        ],
        "note": [
          {
            "text": "No family history of genomic testing"
          },
          {
            "text": "Free text for diagnosis/reason for referral, relevant information including family history, phenotypic details/ HPO Terms/E.g. Reanlaysis - change in observed phenotype. Epilepsy test previously ordered on patient 5 years ago. "
          }
        ]
      },
      "request": {
        "method": "POST",
        "url": "ServiceRequest"
      }
    },
    {
      "fullUrl": "http://example.org/fhir/Observation/Observation-NoPregnancy-Example",
      "resource": {
        "resourceType": "Observation",
        "id": "Observation-NoPregnancy-Example",
        "status": "final",
        "code": {
          "coding": [
            {
              "system": "http://snomed.info/sct",
              "code": "77386006",
              "display": "Pregnancy"
            }
          ]
        },
        "subject": {
          "reference": "Patient/Patient-DemeizaSeo-Example",
          "identifier": {
            "system": "https://fhir.nhs.uk/Id/nhs-number",
            "value": "9449307559"
          }
        },
        "effectiveDateTime": "2023-09-06",
        "valueBoolean": false
      },
      "request": {
        "method": "POST",
        "url": "Observation"
      }
    },
    {
      "fullUrl": "http://example.org/fhir/Observation/Observation-DiseaseStatus-Example",
      "resource": {
        "resourceType": "Observation",
        "id": "Observation-DiseaseStatus-Example",
        "status": "final",
        "code": {
          "coding": [
            {
              "system": "https://fhir.nhs.uk/CodeSystem/England-GenomicTestDirectory",
              "code": "R67.2",
              "display": "Monogenic hearing loss"
            }
          ]
        },
        "subject": {
          "reference": "Patient/Patient-DemeizaSeo-Example",
          "identifier": {
            "system": "https://fhir.nhs.uk/Id/nhs-number",
            "value": "9449307559"
          }
        },
        "effectiveDateTime": "2023-09-06",
        "valueCodeableConcept": {
          "coding": [
            {
              "system": "http://snomed.info/sct",
              "code": "103310001",
              "display": "Patient not affected"
            }
          ]
        }
      },
      "request": {
        "method": "POST",
        "url": "Observation"
      }
    },
    {
      "fullUrl": "http://example.org/fhir/FamilyMemberHistory/FamilyMemberHistory-NonConsanguinousUnion-Example",
      "resource": {
        "resourceType": "FamilyMemberHistory",
        "id": "FamilyMemberHistory-NonConsanguinousUnion-Example",
        "extension": [
          {
            "url": "http://hl7.org/fhir/StructureDefinition/family-member-history-genetics-observation",
            "valueReference": {
              "reference": "Observation/Observation-NonConsanguinousUnion-Example"
            }
          }
        ],
        "status": "completed",
        "patient": {
          "reference": "Patient/Patient-DemeizaSeo-Example",
          "identifier": {
            "system": "https://fhir.nhs.uk/Id/nhs-number",
            "value": "9449307559"
          }
        },
        "relationship": {
          "coding": [
            {
              "system": "http://terminology.hl7.org/CodeSystem/v3-RoleCode",
              "code": "PRN",
              "display": "parent"
            }
          ]
        }
      },
      "request": {
        "method": "POST",
        "url": "FamilyMemberHistory"
      }
    },
    {
      "fullUrl": "http://example.org/fhir/Observation/Observation-NonConsanguinousUnion-Example",
      "resource": {
        "resourceType": "Observation",
        "id": "Observation-NonConsanguinousUnion-Example",
        "status": "final",
        "code": {
          "coding": [
            {
              "system": "http://snomed.info/sct",
              "code": "842009",
              "display": "Consanguinity"
            }
          ]
        },
        "subject": {
          "reference": "Patient/Patient-DemeizaSeo-Example",
          "identifier": {
            "system": "https://fhir.nhs.uk/Id/nhs-number",
            "value": "9449307559"
          }
        },
        "effectiveDateTime": "2023-09-06",
        "valueBoolean": false
      },
      "request": {
        "method": "POST",
        "url": "Observation"
      }
    },
    {
      "fullUrl": "http://example.org/fhir/Observation/Observation-NoBoneMarrowTransplant-Example",
      "resource": {
        "resourceType": "Observation",
        "id": "Observation-NoBoneMarrowTransplant-Example",
        "status": "final",
        "code": {
          "coding": [
            {
              "system": "http://snomed.info/sct",
              "code": "23719005",
              "display": "Transplantation of bone marrow"
            }
          ]
        },
        "subject": {
          "reference": "Patient/Patient-DemeizaSeo-Example",
          "identifier": {
            "system": "https://fhir.nhs.uk/Id/nhs-number",
            "value": "9449307559"
          }
        },
        "effectiveDateTime": "2023-08-05",
        "valueBoolean": false
      },
      "request": {
        "method": "POST",
        "url": "Observation"
      }
    },
    {
      "fullUrl": "http://example.org/fhir/Observation/Observation-NoTransfusion-Example",
      "resource": {
        "resourceType": "Observation",
        "id": "Observation-NoTransfusion-Example",
        "status": "final",
        "code": {
          "coding": [
            {
              "system": "http://snomed.info/sct",
              "code": "5447007",
              "display": "Transfusion"
            }
          ]
        },
        "subject": {
          "reference": "Patient/Patient-DemeizaSeo-Example",
          "identifier": {
            "system": "https://fhir.nhs.uk/Id/nhs-number",
            "value": "9449307559"
          }
        },
        "effectiveDateTime": "2023-09-06",
        "valueBoolean": false
      },
      "request": {
        "method": "POST",
        "url": "Observation"
      }
    }
  ]
}