<Bundle xmlns="http://hl7.org/fhir">
  <id value="06c3a440-4883-11e8-842f-0ed5f89f718b" />
  <identifier>
    <system value="https://tools.ietf.org/html/rfc4122" />
    <value value="1ff370b6-fc5b-40a1-9721-2a942e301f65" />
  </identifier>
  <type value="document" />
  <timestamp value="2007-03-15T01:00:00Z" />
  <entry>
    <fullUrl value="urn:uuid:ed9d08f9-d4fe-47e5-bb2a-1f0e2d85fe6e" />
    <resource>
      <Composition xmlns="http://hl7.org/fhir">
        <id value="ed9d08f9-d4fe-47e5-bb2a-1f0e2d85fe6e" />
        <identifier>
          <system value="https://tools.ietf.org/html/rfc4122" />
          <value value="2b5d459b-df79-4a2b-9b0c-95b2a7ee2ca4" />
        </identifier>
        <status value="final" />
        <type>
          <coding>
            <system value="http://snomed.info/sct" />
            <code value="196971000000103" />
            <display value="General Practice Initial Summary" />
          </coding>
        </type>
        <date value="2007-03-14T01:00:00Z" />
        <subject>
          <reference value="urn:uuid:54143b44-1be6-48d0-b767-171d9ae73bd6" />
        </subject>
        <author>
          <reference value="urn:uuid:02692f55-56cf-4dda-8ef5-e9ec13f6bd99" />
          <display value="The Bridge Street Practice" />
        </author>
        <title value="General Practice Initial Summary" />
        <section>
          <title value="General Practice Initial Summary" />
          <text>
            <status value="generated" />
            <div xmlns="http://www.w3.org/1999/xhtml">
              <h3>Sourced from the patient's General Practice record. This information has not been verified by the practice prior to sending. This summary 
								may not include all the information pertinent to this patient.</h3>
              <h3>Time of summary creation 01.00 15-Mar-2007</h3>
              <h3>Author The Bridge Street Practice, Bridge Street, Bridge Town, Bridgeshire, BT1 1BT, England</h3>
              <h3>Date of sending this summary 15-Mar-2007</h3>
            </div>
          </text>
        </section>
        <section>
          <title value="Allergies and Adverse Reactions" />
          <text>
            <status value="generated" />
            <div xmlns="http://www.w3.org/1999/xhtml">
              <table>
                <thead>
                  <tr>
                    <td>Date</td>
                    <td>Description</td>
                  </tr>
                </thead>
                <tbody>
                  <tr>
                    <td>14-Nov-06</td>
                    <td>Allergy to Drug - Penicillin</td>
                  </tr>
                </tbody>
              </table>
              <h2>Repeat Medication</h2>
              <table>
                <thead>
                  <tr>
                    <th>Date first prescribed</th>
                    <th>Medication Item</th>
                    <th>Dosage instructions</th>
                  </tr>
                </thead>
                <tbody>
                  <tr>
                    <td>02-Mar-06</td>
                    <td>1% Hydrocortisone cream</td>
                    <td>use on affected areas twice a day</td>
                  </tr>
                  <tr>
                    <td>12-Jan-05</td>
                    <td>atenolol 50mg tablets</td>
                    <td>take one daily</td>
                  </tr>
                  <tr>
                    <td>30-Apr-04</td>
                    <td>lisinopril 10mg</td>
                    <td>take one daily</td>
                  </tr>
                  <tr>
                    <td>23-Jun-02</td>
                    <td>lansoprazole 5mg tablets</td>
                    <td>take one daily</td>
                  </tr>
                  <tr>
                    <td>04-Feb-01</td>
                    <td>Beclomethasone 200microgram metered dose inhaler</td>
                    <td>2 two puffs twice daily</td>
                  </tr>
                </tbody>
              </table>
            </div>
          </text>
        </section>
        <section>
          <title value="Acute Medication" />
          <text>
            <status value="generated" />
            <div xmlns="http://www.w3.org/1999/xhtml">
              <table>
                <thead>
                  <tr>
                    <th>Date prescribed</th>
                    <th>Medication Item</th>
                    <th>Dosage instructions</th>
                    <th>Quantity or duration</th>
                  </tr>
                </thead>
                <tbody>
                  <tr>
                    <td>06-Mar-07</td>
                    <td>erthyromycin 500mg tablets</td>
                    <td>take one four times daily</td>
                    <td>7 days</td>
                  </tr>
                  <tr>
                    <td>06-Mar-07</td>
                    <td>Paracetamol 500mg tablets</td>
                    <td>one or two tablet four times daily as required</td>
                    <td>100 tablets</td>
                  </tr>
                  <tr>
                    <td>14-Feb-07</td>
                    <td>diazepam 2mg tablets</td>
                    <td>take one as required maximum 3 a day</td>
                    <td>24 tablets</td>
                  </tr>
                  <tr>
                    <td>13-Feb-07</td>
                    <td>fluoextine 20mg tablets</td>
                    <td>take one tablet daliy</td>
                    <td>56 tablets</td>
                  </tr>
                  <tr>
                    <td>16-Nov-06</td>
                    <td>erythromycin 500mg tablets</td>
                    <td>one four times daily</td>
                    <td>7 days</td>
                  </tr>
                  <tr>
                    <td>12-Nov-06</td>
                    <td>Amoxycillin 500mg tablets</td>
                    <td>one four times daily</td>
                    <td>7 days</td>
                  </tr>
                  <tr>
                    <td>12-Jan-07</td>
                    <td>fluoxetine 20mg tablets</td>
                    <td>take one daily</td>
                    <td>28 tablets</td>
                  </tr>
                  <tr>
                    <td>12-Jan-07</td>
                    <td>diazepam 2mg tablets</td>
                    <td>take one as required maximum 3 a day</td>
                    <td>24 tablets</td>
                  </tr>
                  <tr>
                    <td>01-Dec-06</td>
                    <td>Paracetamol 500mg tablets</td>
                    <td>one or two tablet four times daily as required</td>
                    <td>100 tablets</td>
                  </tr>
                  <tr>
                    <td>01-Dec-06</td>
                    <td>Codeine 30mg tablets</td>
                    <td>one or two tablet four times daily as required</td>
                    <td>100 tablets</td>
                  </tr>
                </tbody>
              </table>
            </div>
          </text>
        </section>
      </Composition>
    </resource>
  </entry>
  <entry>
    <fullUrl value="urn:uuid:02692f55-56cf-4dda-8ef5-e9ec13f6bd99" />
    <resource>
      <Organization>
        <id value="02692f55-56cf-4dda-8ef5-e9ec13f6bd99" />
        <identifier>
          <system value="https://fhir.nhs.uk/Id/ods-organization-code" />
          <value value="M85011" />
        </identifier>
        <name value="The Bridge Street Practice" />
      </Organization>
    </resource>
  </entry>
  <entry>
    <fullUrl value="urn:uuid:54143b44-1be6-48d0-b767-171d9ae73bd6" />
    <resource>
      <Patient>
        <id value="54143b44-1be6-48d0-b767-171d9ae73bd6" />
        <identifier>
          <extension url="https://fhir.hl7.org.uk/STU3/StructureDefinition/Extension-CareConnect-NHSNumberVerificationStatus-1">
            <valueCodeableConcept>
              <coding>
                <system value="https://fhir.hl7.org.uk/STU3/CodeSystem/CareConnect-NHSNumberVerificationStatus-1" />
                <code value="01" />
                <display value="Number present and verified" />
              </coding>
            </valueCodeableConcept>
          </extension>
          <system value="https://fhir.nhs.uk/Id/nhs-number" />
          <value value="9900004948" />
        </identifier>
      </Patient>
    </resource>
  </entry>
</Bundle>